"","Participant","Trial","Stimulus","Condition","TrialType","Accuracy","RT"
"714","sub-004",1,"Generosity","Abstract","New",1,528.434563972745
"1003","sub-004",2,"Mountain","Concrete","New",0,447.452053097151
"823","sub-004",3,"Table","Concrete","New",1,358.924260769256
"153","sub-004",4,"Wisdom","Abstract","Old",1,1009.07174729852
"923","sub-004",5,"Apple","Concrete","Old",0,628.244997144646
"973","sub-004",6,"Window","Concrete","New",0,387.765772602607
"453","sub-004",7,"Computer","Abstract","Old",1,485.801388873604
"763","sub-004",8,"Phone","Concrete","Old",1,587.832212185563
"163","sub-004",9,"Patience","Abstract","Old",1,522.452564908378
"114","sub-004",10,"Friendship","Abstract","Old",1,427.253958045951
"833","sub-004",11,"Camera","Concrete","New",1,354.506980581441
"993","sub-004",12,"Lamp","Concrete","Old",0,406.071346344543
"214","sub-004",13,"Honesty","Abstract","Old",1,404.255288511313
"215","sub-004",14,"Love","Abstract","Old",1,843.288170523718
"663","sub-004",15,"Patience","Concrete","Old",1,852.76494216062
"123","sub-004",16,"Loyalty","Abstract","Old",1,699.24390242482
"203","sub-004",17,"Knowledge","Abstract","Old",1,609.11190312049
"223","sub-004",18,"Determination","Abstract","New",1,201.822763837472
"423","sub-004",19,"Apple","Abstract","Old",1,555.091228642476
"143","sub-004",20,"Justice","Abstract","Old",1,169.643339753243
"843","sub-004",21,"Bridge","Concrete","New",1,526.763702867153
"933","sub-004",22,"Book","Concrete","New",0,78.6924738343328
"115","sub-004",23,"Success","Abstract","New",1,663.091193764296
"573","sub-004",24,"Generosity","Concrete","New",1,525.602800396736
"683","sub-004",25,"Compassion","Concrete","New",1,486.382628258447
"314","sub-004",26,"School","Abstract","Old",1,413.285643040786
"614","sub-004",27,"Humility","Abstract","New",1,1152.34867265944
"514","sub-004",28,"Friendship","Concrete","Old",1,162.172632272417
"263","sub-004",29,"Phone","Abstract","Old",1,565.515794805721
"593","sub-004",30,"Faith","Concrete","Old",1,601.420724005253
"873","sub-004",31,"Hospital","Concrete","New",1,356.210338987105
"483","sub-004",32,"Car","Abstract","New",1,921.274853802703
"193","sub-004",33,"Ambition","Abstract","New",1,510.584353918525
"943","sub-004",34,"House","Concrete","New",0,459.165099438052
"323","sub-004",35,"Table","Abstract","New",1,283.629057260346
"723","sub-004",36,"Determination","Concrete","New",1,723.347371696435
"603","sub-004",37,"Happiness","Concrete","Old",1,778.866880683369
"633","sub-004",38,"Integrity","Concrete","New",1,511.238263129923
"914","sub-004",39,"Faith","Abstract","Old",1,732.748510210133
"133","sub-004",40,"Integrity","Abstract","New",1,565.084220110807
"414","sub-004",41,"Beach","Abstract","Old",1,612.22121668724
"433","sub-004",42,"Book","Abstract","New",1,376.462151287536
"315","sub-004",43,"Gratitude","Abstract","Old",1,285.69953146731
"283","sub-004",44,"Chair","Abstract","Old",1,639.726364949724
"623","sub-004",45,"Loyalty","Concrete","Old",1,445.592991119035
"515","sub-004",46,"Freedom","Abstract","New",1,466.635549547007
"533","sub-004",47,"Gratitude","Concrete","Old",1,1009.15436756976
"293","sub-004",48,"Dog","Abstract","New",1,507.696317450304
"333","sub-004",49,"Camera","Abstract","New",1,271.662525346801
"563","sub-004",50,"Humility","Concrete","New",1,531.569989557355
"703","sub-004",51,"Knowledge","Concrete","Old",1,250.504580125341
"853","sub-004",52,"Park","Concrete","Old",1,665.541653395572
"793","sub-004",53,"Dog","Concrete","New",1,538.390815292588
"103","sub-004",54,"Happiness","Abstract","Old",1,246.711356023623
"393","sub-004",55,"Tree","Abstract","Old",1,859.654526220256
"553","sub-004",56,"Freedom","Concrete","New",1,671.749477637908
"863","sub-004",57,"Road","Concrete","Old",1,411.553817473027
"383","sub-004",58,"Boat","Abstract","New",1,381.918881742359
"715","sub-004",59,"Honesty","Concrete","Old",1,703.751791559043
"353","sub-004",60,"Park","Abstract","Old",1,411.503552082964
"503","sub-004",61,"Mountain","Abstract","New",1,410.207348890937
"253","sub-004",62,"Creativity","Abstract","New",1,556.595319325192
"473","sub-004",63,"Window","Abstract","New",1,553.054731055092
"233","sub-004",64,"Trust","Abstract","Old",1,526.495228810299
"363","sub-004",65,"Road","Abstract","Old",1,481.80395060588
"733","sub-004",66,"Trust","Concrete","Old",1,895.991699174
"543","sub-004",67,"Courage","Concrete","Old",1,550.639763031558
"814","sub-004",68,"Respect","Abstract","New",1,923.885054672416
"803","sub-004",69,"Garden","Concrete","New",1,504.070500672351
"583","sub-004",70,"Respect","Concrete","New",1,456.847000365947
"493","sub-004",71,"Lamp","Abstract","Old",1,491.952786951763
"963","sub-004",72,"Train","Concrete","Old",0,733.230172728306
"615","sub-004",73,"Success","Concrete","New",1,670.271412136184
"243","sub-004",74,"Hope","Abstract","New",1,710.1959873682
"653","sub-004",75,"Wisdom","Concrete","Old",1,717.710344706949
"403","sub-004",76,"Shoe","Abstract","Old",1,634.367822189602
"693","sub-004",77,"Ambition","Concrete","New",1,313.962380327701
"643","sub-004",78,"Justice","Concrete","Old",1,200.155833308173
"903","sub-004",79,"Shoe","Concrete","Old",1,433.289400668325
"415","sub-004",80,"Courage","Abstract","Old",1,581.772144621326
"983","sub-004",81,"Car","Concrete","New",0,715.707751433646
"915","sub-004",82,"Beach","Concrete","Old",1,256.839403713578
"673","sub-004",83,"Peace","Concrete","New",1,187.792253462489
"783","sub-004",84,"Chair","Concrete","Old",1,450.187098990685
"273","sub-004",85,"River","Abstract","New",1,604.429229419405
"893","sub-004",86,"Tree","Concrete","Old",1,339.833880845848
"523","sub-004",87,"Love","Concrete","Old",1,285.481812229374
"743","sub-004",88,"Hope","Concrete","New",1,590.034548175595
"773","sub-004",89,"River","Concrete","New",1,351.222120585258
"373","sub-004",90,"Hospital","Abstract","New",1,316.84898748337
"815","sub-004",91,"School","Concrete","Old",1,648.829213192116
"953","sub-004",92,"Computer","Concrete","Old",0,201.021137886732
"303","sub-004",93,"Garden","Abstract","New",1,499.364475185565
"343","sub-004",94,"Bridge","Abstract","New",1,402.737967152684
"443","sub-004",95,"House","Abstract","New",1,441.623156453308
"883","sub-004",96,"Boat","Concrete","New",1,287.973351376815
"173","sub-004",97,"Peace","Abstract","New",1,279.749762058963
"753","sub-004",98,"Creativity","Concrete","New",1,125.450044251395
"463","sub-004",99,"Train","Abstract","Old",1,577.58485143433
"183","sub-004",100,"Compassion","Abstract","New",1,809.671701149264
