"","Participant","Trial","Stimulus","Condition","TrialType","Accuracy","RT"
"6418","sub-019",1,"Trust","Concrete","Old",1,626.381046399278
"2818","sub-019",2,"Table","Abstract","Old",1,414.14059826818
"5103","sub-019",3,"Courage","Abstract","New",1,822.632370758378
"9418","sub-019",4,"Mountain","Concrete","New",0,456.19563224677
"6718","sub-019",5,"Compassion","Concrete","Old",1,471.841367594622
"5518","sub-019",6,"Courage","Concrete","New",1,186.191718188036
"3818","sub-019",7,"School","Abstract","New",1,303.398513354458
"6818","sub-019",8,"Love","Concrete","Old",1,259.120086311984
"1418","sub-019",9,"Trust","Abstract","Old",1,605.650303758611
"4818","sub-019",10,"Chair","Abstract","New",1,345.063560753845
"8122","sub-019",11,"Hospital","Concrete","Old",1,722.554115263402
"6518","sub-019",12,"Determination","Concrete","Old",1,654.279596166502
"8102","sub-019",13,"Happiness","Abstract","Old",1,747.601286688559
"6318","sub-019",14,"Wisdom","Concrete","Old",1,322.103027830514
"9220","sub-019",15,"House","Concrete","Old",0,329.29047816321
"9122","sub-019",16,"Train","Concrete","Old",0,495.780380961288
"4618","sub-019",17,"Phone","Abstract","New",1,610.936283082682
"1518","sub-019",18,"Determination","Abstract","Old",1,243.09172463091
"1018","sub-019",19,"Integrity","Abstract","Old",1,482.523708281354
"1618","sub-019",20,"Friendship","Abstract","New",1,584.753525190212
"2918","sub-019",21,"Tree","Abstract","Old",1,259.209824307213
"2220","sub-019",22,"Creativity","Abstract","Old",1,838.61690275718
"9618","sub-019",23,"Phone","Concrete","New",0,444.883326834499
"3618","sub-019",24,"Shoe","Abstract","New",1,468.844824784276
"8718","sub-019",25,"Road","Concrete","Old",1,505.49008610918
"7818","sub-019",26,"Table","Concrete","Old",1,670.904002939221
"5818","sub-019",27,"Happiness","Concrete","Old",1,549.77618001075
"3103","sub-019",28,"Ambition","Abstract","Old",1,228.28751285141
"3122","sub-019",29,"Hospital","Abstract","Old",1,139.109275540422
"7718","sub-019",30,"Apple","Concrete","Old",1,334.092484079742
"9718","sub-019",31,"Boat","Concrete","Old",0,309.670430180431
"4918","sub-019",32,"Car","Abstract","New",1,580.87088720684
"8518","sub-019",33,"Beach","Concrete","New",1,127.869244896071
"7018","sub-019",34,"Justice","Concrete","Old",1,663.247764515639
"3418","sub-019",35,"River","Abstract","New",1,796.90637145437
"9102","sub-019",36,"Hope","Abstract","New",1,657.441386422648
"8318","sub-019",37,"Camera","Concrete","Old",1,548.276535589102
"3718","sub-019",38,"Road","Abstract","Old",1,693.846536194231
"4018","sub-019",39,"Bridge","Abstract","New",1,536.289389744358
"5219","sub-019",40,"Loyalty","Concrete","New",1,47.3862139821308
"5718","sub-019",41,"Honesty","Concrete","New",1,1.74017030633092
"3918","sub-019",42,"Garden","Abstract","New",1,480.659980416229
"6122","sub-019",43,"Patience","Concrete","Old",1,465.594842278536
"6220","sub-019",44,"Gratitude","Concrete","Old",1,414.159166474854
"8418","sub-019",45,"River","Concrete","New",1,434.640123128417
"1818","sub-019",46,"Love","Abstract","Old",1,895.221663793165
"2718","sub-019",47,"Apple","Abstract","Old",1,871.590745173084
"1318","sub-019",48,"Wisdom","Abstract","Old",1,503.95644568684
"7318","sub-019",49,"Faith","Concrete","Old",1,362.973325443012
"5618","sub-019",50,"Peace","Concrete","New",1,488.991620135558
"10018","sub-019",51,"Window","Concrete","New",0,775.31533512247
"8918","sub-019",52,"Garden","Concrete","New",1,391.692350934797
"7618","sub-019",53,"Park","Concrete","New",1,515.375600246944
"4122","sub-019",54,"Train","Abstract","Old",1,368.556980685245
"6102","sub-019",55,"Peace","Abstract","New",1,510.450258226944
"5122","sub-019",56,"Success","Concrete","New",1,576.297730439187
"5018","sub-019",57,"Window","Abstract","New",0,317.56004628367
"7418","sub-019",58,"Knowledge","Concrete","New",1,506.34202302961
"2102","sub-019",59,"Loyalty","Abstract","New",1,530.495192178615
"9918","sub-019",60,"Car","Concrete","New",0,491.182354856321
"7103","sub-019",61,"Honesty","Abstract","New",1,734.229321906295
"1918","sub-019",62,"Humility","Abstract","Old",1,542.788452772568
"2618","sub-019",63,"Park","Abstract","New",1,437.443097479298
"7219","sub-019",64,"Creativity","Concrete","Old",1,615.513670024455
"7122","sub-019",65,"Generosity","Concrete","New",1,162.910670609828
"4418","sub-019",66,"Mountain","Abstract","New",1,500.216289050693
"7918","sub-019",67,"Tree","Concrete","Old",1,360.077282586036
"9018","sub-019",68,"Bridge","Concrete","New",1,292.651813580181
"1122","sub-019",69,"Patience","Abstract","Old",1,639.506548809912
"1220","sub-019",70,"Gratitude","Abstract","Old",1,763.642081397834
"6918","sub-019",71,"Humility","Concrete","Old",1,343.35668585089
"4102","sub-019",72,"Freedom","Abstract","Old",1,493.11959059448
"3219","sub-019",73,"Dog","Abstract","New",1,666.146385582506
"4718","sub-019",74,"Boat","Abstract","Old",1,595.293676397898
"4518","sub-019",75,"Computer","Abstract","New",1,621.954110975055
"2018","sub-019",76,"Justice","Abstract","Old",1,769.403137268282
"9818","sub-019",77,"Chair","Concrete","New",0,611.924322745925
"8220","sub-019",78,"Dog","Concrete","New",1,576.910860193278
"5418","sub-019",79,"Freedom","Concrete","Old",1,542.981908720599
"9518","sub-019",80,"Computer","Concrete","New",0,127.91955193739
"2122","sub-019",81,"Generosity","Abstract","New",1,637.252794692314
"2418","sub-019",82,"Knowledge","Abstract","New",1,377.604552830599
"5318","sub-019",83,"Ambition","Concrete","Old",1,1037.39405046405
"1718","sub-019",84,"Compassion","Abstract","Old",1,566.23972230905
"9318","sub-019",85,"Lamp","Concrete","Old",0,-62.5153787211299
"2518","sub-019",86,"Respect","Abstract","New",1,455.757875501978
"1102","sub-019",87,"Success","Abstract","New",1,306.88124480275
"8018","sub-019",88,"Book","Concrete","New",1,769.465235584492
"4319","sub-019",89,"Lamp","Abstract","Old",1,538.564065381718
"5918","sub-019",90,"Hope","Concrete","New",1,36.9121718709517
"3318","sub-019",91,"Camera","Abstract","Old",1,883.536827007606
"3518","sub-019",92,"Beach","Abstract","New",1,935.266673363628
"8618","sub-019",93,"Shoe","Concrete","New",1,748.839162303094
"6018","sub-019",94,"Integrity","Concrete","Old",1,405.864791156411
"8818","sub-019",95,"School","Concrete","New",1,335.883886674821
"7518","sub-019",96,"Respect","Concrete","New",1,767.563915550015
"3018","sub-019",97,"Book","Abstract","New",1,446.642600762438
"4219","sub-019",98,"House","Abstract","Old",1,643.727547587373
"6618","sub-019",99,"Friendship","Concrete","New",1,165.927140930405
"2318","sub-019",100,"Faith","Abstract","Old",1,616.941932888242
