"Participant","Trial","Stimulus","Condition","Accuracy","RT"
"sub-001",1,"Respect","Abstract",1,853.110972312577
"sub-001",2,"Dog","Concrete",0,362.852709210205
"sub-001",3,"Freedom","Abstract",0,634.003761983258
"sub-001",4,"Hospital","Concrete",0,359.860729337927
"sub-001",5,"Lamp","Concrete",0,397.671053927887
"sub-001",6,"Creativity","Abstract",0,613.419758154446
"sub-001",7,"Courage","Abstract",1,560.221070326325
"sub-001",8,"Table","Concrete",1,245.077477020329
"sub-001",9,"Patience","Abstract",1,574.868264830333
"sub-001",10,"Gratitude","Abstract",1,471.341625356313
"sub-001",11,"Garden","Concrete",0,776.456447708333
"sub-001",12,"Ambition","Abstract",1,678.789237525684
"sub-001",13,"Shoe","Concrete",0,672.034845899045
"sub-001",14,"Justice","Abstract",1,418.010713815637
"sub-001",15,"Loyalty","Abstract",1,442.095810762386
"sub-001",16,"Bridge","Concrete",0,826.435216103884
"sub-001",17,"Window","Concrete",0,448.523851279607
"sub-001",18,"Determination","Abstract",1,682.145270697811
"sub-001",19,"Car","Concrete",1,521.605754480815
"sub-001",20,"Knowledge","Abstract",0,499.16321527314
"sub-001",21,"Honesty","Abstract",1,309.27331995218
"sub-001",22,"Boat","Concrete",1,601.697285113061
"sub-001",23,"Compassion","Abstract",1,994.522334072431
"sub-001",24,"School","Concrete",1,375.346917152623
"sub-001",25,"Friendship","Abstract",1,532.964276975234
"sub-001",26,"Phone","Concrete",1,731.573561196635
"sub-001",27,"Train","Concrete",1,722.08052313899
"sub-001",28,"Park","Concrete",0,633.341495203441
"sub-001",29,"Beach","Concrete",1,807.366690908169
"sub-001",30,"Book","Concrete",0,411.438414111603
"sub-001",31,"Apple","Concrete",1,630.042729903
"sub-001",32,"Computer","Concrete",1,234.681558308393
"sub-001",33,"Faith","Abstract",1,373.18047367115
"sub-001",34,"Humility","Abstract",1,590.65066764238
"sub-001",35,"Generosity","Abstract",1,255.286639914048
"sub-001",36,"Chair","Concrete",1,395.319872712138
"sub-001",37,"Wisdom","Abstract",1,626.590074242704
"sub-001",38,"Camera","Concrete",1,365.926664555175
"sub-001",39,"Love","Abstract",1,199.008274221792
"sub-001",40,"Happiness","Abstract",0,451.49599380167
"sub-001",41,"Integrity","Abstract",1,446.2662534363
"sub-001",42,"Peace","Abstract",1,618.289247103493
"sub-001",43,"Success","Abstract",1,655.101905779933
"sub-001",44,"Road","Concrete",1,307.815670289511
"sub-001",45,"Tree","Concrete",0,566.837071565269
"sub-001",46,"River","Concrete",0,359.083071216236
"sub-001",47,"Mountain","Concrete",0,843.457453874529
"sub-001",48,"Hope","Abstract",1,795.617399314641
"sub-001",49,"Trust","Abstract",0,772.619967455273
"sub-001",50,"House","Concrete",1,498.423174628847
"sub-002",1,"Respect","Abstract",1,347.166967333315
"sub-002",2,"Happiness","Abstract",1,918.097010707563
"sub-002",3,"Patience","Abstract",1,563.52730928492
"sub-002",4,"Garden","Concrete",1,194.890472947895
"sub-002",5,"Wisdom","Abstract",1,813.877432721408
"sub-002",6,"Car","Concrete",1,659.532992719205
"sub-002",7,"Shoe","Concrete",0,460.545841992207
"sub-002",8,"Knowledge","Abstract",1,871.474075268994
"sub-002",9,"Humility","Abstract",1,482.01827413883
"sub-002",10,"Love","Abstract",0,567.387538168433
"sub-002",11,"Book","Concrete",0,935.852440328182
"sub-002",12,"Gratitude","Abstract",1,556.650348769625
"sub-002",13,"Table","Concrete",0,348.814282866468
"sub-002",14,"Creativity","Abstract",1,592.357726711448
"sub-002",15,"Courage","Abstract",1,752.158476790105
"sub-002",16,"Faith","Abstract",1,419.261149220252
"sub-002",17,"Honesty","Abstract",1,350.856469642652
"sub-002",18,"School","Concrete",1,165.127094047882
"sub-002",19,"Bridge","Concrete",1,805.231636243747
"sub-002",20,"Generosity","Abstract",1,380.757747207884
"sub-002",21,"Peace","Abstract",1,723.311289749625
"sub-002",22,"Computer","Concrete",0,293.628866239226
"sub-002",23,"River","Concrete",1,509.011245397729
"sub-002",24,"Train","Concrete",1,724.431709397894
"sub-002",25,"Phone","Concrete",1,789.044688768645
"sub-002",26,"Camera","Concrete",1,461.078358537892
"sub-002",27,"Ambition","Abstract",1,678.768189719501
"sub-002",28,"Loyalty","Abstract",0,512.308729344187
"sub-002",29,"Integrity","Abstract",1,780.435319014739
"sub-002",30,"Park","Concrete",1,198.458557975524
"sub-002",31,"Trust","Abstract",1,715.126863776701
"sub-002",32,"Hope","Abstract",1,459.724336440982
"sub-002",33,"Mountain","Concrete",0,829.389576144617
"sub-002",34,"Dog","Concrete",1,545.732944821271
"sub-002",35,"Chair","Concrete",0,589.31563453234
"sub-002",36,"Hospital","Concrete",1,451.205451065941
"sub-002",37,"Beach","Concrete",0,571.308546388985
"sub-002",38,"Success","Abstract",1,964.952278015547
"sub-002",39,"Boat","Concrete",1,299.359370963522
"sub-002",40,"Compassion","Abstract",0,745.212545066604
"sub-002",41,"Lamp","Concrete",0,477.658515597592
"sub-002",42,"Window","Concrete",0,437.852738286375
"sub-002",43,"Freedom","Abstract",1,547.87304437589
"sub-002",44,"Tree","Concrete",1,381.647927579777
"sub-002",45,"House","Concrete",0,798.318613765391
"sub-002",46,"Apple","Concrete",1,771.712671366793
"sub-002",47,"Friendship","Abstract",1,461.83344952669
"sub-002",48,"Determination","Abstract",0,346.759965297397
"sub-002",49,"Road","Concrete",0,187.100598349934
"sub-002",50,"Justice","Abstract",1,486.919640623222
"sub-003",1,"House","Concrete",0,476.706645184498
"sub-003",2,"Car","Concrete",1,493.697114022771
"sub-003",3,"Apple","Concrete",0,455.46628721076
"sub-003",4,"Boat","Concrete",0,635.890255758667
"sub-003",5,"Generosity","Abstract",1,782.686636760003
"sub-003",6,"Hospital","Concrete",1,539.839202330093
"sub-003",7,"Mountain","Concrete",1,492.929362495036
"sub-003",8,"Chair","Concrete",0,199.59434197077
"sub-003",9,"Justice","Abstract",1,628.959024732604
"sub-003",10,"Tree","Concrete",0,542.533048538153
"sub-003",11,"Lamp","Concrete",0,601.979054595485
"sub-003",12,"River","Concrete",0,747.384408226486
"sub-003",13,"Book","Concrete",1,452.736606389694
"sub-003",14,"Computer","Concrete",1,497.785623330425
"sub-003",15,"School","Concrete",1,258.396949191515
"sub-003",16,"Park","Concrete",1,519.844147134828
"sub-003",17,"Hope","Abstract",1,604.514766171979
"sub-003",18,"Compassion","Abstract",1,393.088193396188
"sub-003",19,"Friendship","Abstract",1,456.092666596892
"sub-003",20,"Freedom","Abstract",1,749.677870148414
"sub-003",21,"Bridge","Concrete",1,503.594477904393
"sub-003",22,"Love","Abstract",1,464.148882643721
"sub-003",23,"Determination","Abstract",1,622.903353664195
"sub-003",24,"Phone","Concrete",1,297.353363909254
"sub-003",25,"Happiness","Abstract",0,648.76106512758
"sub-003",26,"Beach","Concrete",0,279.74124432047
"sub-003",27,"Courage","Abstract",1,874.486583495829
"sub-003",28,"Table","Concrete",0,505.468455384466
"sub-003",29,"Integrity","Abstract",1,777.90069904046
"sub-003",30,"Dog","Concrete",1,770.118165457199
"sub-003",31,"Faith","Abstract",1,298.064091660043
"sub-003",32,"Success","Abstract",1,505.368401384868
"sub-003",33,"Window","Concrete",0,646.539539552728
"sub-003",34,"Camera","Concrete",1,371.451345890484
"sub-003",35,"Wisdom","Abstract",1,340.752643438687
"sub-003",36,"Knowledge","Abstract",1,621.661749733827
"sub-003",37,"Train","Concrete",1,449.607651528941
"sub-003",38,"Honesty","Abstract",0,604.443614428366
"sub-003",39,"Patience","Abstract",1,408.670478129332
"sub-003",40,"Shoe","Concrete",0,581.625051880933
"sub-003",41,"Gratitude","Abstract",1,257.02264099968
"sub-003",42,"Road","Concrete",0,475.010686008143
"sub-003",43,"Respect","Abstract",1,727.478879473377
"sub-003",44,"Loyalty","Abstract",1,646.907331173932
"sub-003",45,"Peace","Abstract",0,391.276922015821
"sub-003",46,"Garden","Concrete",1,643.213076800801
"sub-003",47,"Creativity","Abstract",1,494.097161522364
"sub-003",48,"Ambition","Abstract",0,571.159422185889
"sub-003",49,"Humility","Abstract",1,761.472873129909
"sub-003",50,"Trust","Abstract",1,867.929617503759
"sub-004",1,"Train","Concrete",1,923.073700363453
"sub-004",2,"Courage","Abstract",1,475.179547971038
"sub-004",3,"Success","Abstract",1,752.339326676142
"sub-004",4,"School","Concrete",0,562.87691852149
"sub-004",5,"Shoe","Concrete",1,545.872156411052
"sub-004",6,"Patience","Abstract",1,601.032580648805
"sub-004",7,"Dog","Concrete",0,760.19879596172
"sub-004",8,"Gratitude","Abstract",1,556.348057767398
"sub-004",9,"Faith","Abstract",1,689.271883006928
"sub-004",10,"Phone","Concrete",1,615.60343059145
"sub-004",11,"Respect","Abstract",1,678.596944205059
"sub-004",12,"Park","Concrete",0,166.224630155282
"sub-004",13,"Justice","Abstract",1,409.424544127417
"sub-004",14,"Hospital","Concrete",0,260.637172776327
"sub-004",15,"Car","Concrete",1,70.4234080431401
"sub-004",16,"Camera","Concrete",0,578.177874183395
"sub-004",17,"Friendship","Abstract",1,430.467909882867
"sub-004",18,"Wisdom","Abstract",1,473.233451994082
"sub-004",19,"Happiness","Abstract",1,248.877681491151
"sub-004",20,"House","Concrete",0,706.685982016657
"sub-004",21,"Trust","Abstract",1,738.401678494705
"sub-004",22,"Loyalty","Abstract",1,91.4553759282081
"sub-004",23,"Creativity","Abstract",1,730.562998720106
"sub-004",24,"Tree","Concrete",1,609.099606813919
"sub-004",25,"Humility","Abstract",1,286.777613734203
"sub-004",26,"Computer","Concrete",0,226.278103093287
"sub-004",27,"Book","Concrete",0,418.540229099149
"sub-004",28,"Mountain","Concrete",1,739.149334549621
"sub-004",29,"Apple","Concrete",0,468.068860102352
"sub-004",30,"Window","Concrete",1,786.042792017141
"sub-004",31,"Peace","Abstract",1,914.5222369957
"sub-004",32,"Knowledge","Abstract",1,607.360732749112
"sub-004",33,"Love","Abstract",1,253.640372006851
"sub-004",34,"Garden","Concrete",0,484.418005574085
"sub-004",35,"Generosity","Abstract",1,269.221252399788
"sub-004",36,"Table","Concrete",0,536.699967017704
"sub-004",37,"Integrity","Abstract",1,439.114853229112
"sub-004",38,"Honesty","Abstract",0,661.873881334778
"sub-004",39,"Bridge","Concrete",1,289.127604110133
"sub-004",40,"Compassion","Abstract",1,555.000472144347
"sub-004",41,"Lamp","Concrete",1,348.818774946475
"sub-004",42,"Chair","Concrete",0,327.351148667182
"sub-004",43,"Beach","Concrete",1,399.392583070016
"sub-004",44,"Boat","Concrete",1,490.976889907638
"sub-004",45,"Road","Concrete",0,728.79105225181
"sub-004",46,"Determination","Abstract",1,554.856985816369
"sub-004",47,"Freedom","Abstract",1,-41.6097197840961
"sub-004",48,"Hope","Abstract",1,520.360915703072
"sub-004",49,"Ambition","Abstract",0,571.266367210882
"sub-004",50,"River","Concrete",1,597.154344450518
"sub-005",1,"Bridge","Concrete",0,829.972481761935
"sub-005",2,"Camera","Concrete",0,632.941238264365
"sub-005",3,"Compassion","Abstract",1,563.75690010595
"sub-005",4,"Dog","Concrete",1,370.554104081899
"sub-005",5,"Courage","Abstract",1,374.628368659138
"sub-005",6,"Success","Abstract",1,521.030723161434
"sub-005",7,"Computer","Concrete",1,271.213055994164
"sub-005",8,"Justice","Abstract",1,500.943598397167
"sub-005",9,"Beach","Concrete",0,563.481871190169
"sub-005",10,"Car","Concrete",1,337.565298489861
"sub-005",11,"Hospital","Concrete",0,547.53342775907
"sub-005",12,"Lamp","Concrete",0,793.859402662515
"sub-005",13,"Happiness","Abstract",1,818.775993582192
"sub-005",14,"Patience","Abstract",1,631.754846899474
"sub-005",15,"Garden","Concrete",0,302.318519989728
"sub-005",16,"Wisdom","Abstract",1,585.796350639295
"sub-005",17,"Book","Concrete",0,432.483502249735
"sub-005",18,"Phone","Concrete",1,427.485911207497
"sub-005",19,"Friendship","Abstract",1,532.689795830517
"sub-005",20,"Park","Concrete",1,238.210260504998
"sub-005",21,"Integrity","Abstract",1,659.328084743988
"sub-005",22,"Faith","Abstract",1,857.654851370938
"sub-005",23,"Ambition","Abstract",0,572.147049745777
"sub-005",24,"Generosity","Abstract",1,656.98255763324
"sub-005",25,"Respect","Abstract",0,448.510072127901
"sub-005",26,"Love","Abstract",1,427.463609770053
"sub-005",27,"Knowledge","Abstract",1,753.15225924353
"sub-005",28,"School","Concrete",0,188.919775134398
"sub-005",29,"Creativity","Abstract",1,314.54321710802
"sub-005",30,"Tree","Concrete",1,207.990559686117
"sub-005",31,"Apple","Concrete",0,409.735938100007
"sub-005",32,"House","Concrete",0,651.224652718443
"sub-005",33,"Freedom","Abstract",1,512.469386330935
"sub-005",34,"Mountain","Concrete",1,710.260815884432
"sub-005",35,"Peace","Abstract",0,520.22708463638
"sub-005",36,"Loyalty","Abstract",0,642.24707116018
"sub-005",37,"Humility","Abstract",1,710.888817521014
"sub-005",38,"Honesty","Abstract",0,364.568575514761
"sub-005",39,"Shoe","Concrete",0,142.032984339346
"sub-005",40,"Hope","Abstract",1,327.868999705991
"sub-005",41,"Gratitude","Abstract",1,471.972262373012
"sub-005",42,"Road","Concrete",1,374.962294125654
"sub-005",43,"Chair","Concrete",0,201.240412932942
"sub-005",44,"Table","Concrete",1,354.551594743872
"sub-005",45,"Window","Concrete",1,401.211626362608
"sub-005",46,"Determination","Abstract",1,726.71780697161
"sub-005",47,"Trust","Abstract",1,686.954912935384
"sub-005",48,"River","Concrete",1,431.650279595103
"sub-005",49,"Boat","Concrete",0,468.237547353862
"sub-005",50,"Train","Concrete",1,369.399114721029
"sub-006",1,"Knowledge","Abstract",1,71.5377357837154
"sub-006",2,"House","Concrete",0,294.88924149549
"sub-006",3,"Wisdom","Abstract",1,418.486353476541
"sub-006",4,"Window","Concrete",1,265.308612577969
"sub-006",5,"Determination","Abstract",1,871.210527220444
"sub-006",6,"Tree","Concrete",1,245.169972863859
"sub-006",7,"Honesty","Abstract",1,588.617405957785
"sub-006",8,"Freedom","Abstract",0,542.00026387045
"sub-006",9,"Ambition","Abstract",1,691.010399697349
"sub-006",10,"Hope","Abstract",1,544.910813797562
"sub-006",11,"Success","Abstract",1,954.314402895646
"sub-006",12,"Integrity","Abstract",1,775.570064641125
"sub-006",13,"Peace","Abstract",1,603.327407036942
"sub-006",14,"Table","Concrete",1,424.437463971986
"sub-006",15,"Mountain","Concrete",0,590.313677072874
"sub-006",16,"Park","Concrete",0,838.71187058587
"sub-006",17,"Car","Concrete",1,221.173975324759
"sub-006",18,"Computer","Concrete",0,186.280094235361
"sub-006",19,"Bridge","Concrete",0,587.868191388783
"sub-006",20,"Beach","Concrete",0,474.322542933787
"sub-006",21,"Courage","Abstract",1,360.215854587798
"sub-006",22,"Respect","Abstract",1,474.275317859644
"sub-006",23,"Apple","Concrete",1,749.35111398955
"sub-006",24,"Humility","Abstract",1,320.205123498425
"sub-006",25,"Train","Concrete",1,840.758969066974
"sub-006",26,"Friendship","Abstract",0,557.196549613615
"sub-006",27,"Gratitude","Abstract",1,346.849981789404
"sub-006",28,"Camera","Concrete",0,516.190620121503
"sub-006",29,"Generosity","Abstract",1,166.560930189808
"sub-006",30,"Dog","Concrete",0,427.241425311322
"sub-006",31,"Phone","Concrete",0,334.21794091027
"sub-006",32,"Happiness","Abstract",1,751.878865371523
"sub-006",33,"School","Concrete",0,709.177736537917
"sub-006",34,"Shoe","Concrete",0,662.755806558264
"sub-006",35,"Trust","Abstract",1,428.764104645731
"sub-006",36,"Boat","Concrete",1,7.50994474554994
"sub-006",37,"Creativity","Abstract",1,499.098232548116
"sub-006",38,"Patience","Abstract",1,351.840713242351
"sub-006",39,"Love","Abstract",1,589.021326209574
"sub-006",40,"Road","Concrete",1,405.606357923565
"sub-006",41,"Chair","Concrete",1,185.368845787582
"sub-006",42,"Hospital","Concrete",1,442.480749711278
"sub-006",43,"River","Concrete",1,803.672946870558
"sub-006",44,"Book","Concrete",0,821.975740929143
"sub-006",45,"Compassion","Abstract",1,746.114481708049
"sub-006",46,"Lamp","Concrete",0,504.131964947714
"sub-006",47,"Loyalty","Abstract",1,408.819271470961
"sub-006",48,"Justice","Abstract",1,676.063737090315
"sub-006",49,"Faith","Abstract",1,652.229832101352
"sub-006",50,"Garden","Concrete",1,762.184892816196
"sub-007",1,"Friendship","Abstract",1,720.427575210011
"sub-007",2,"Camera","Concrete",0,256.8586073075
"sub-007",3,"Train","Concrete",0,320.561901047723
"sub-007",4,"Respect","Abstract",1,300.070952230419
"sub-007",5,"House","Concrete",0,713.486720374404
"sub-007",6,"Lamp","Concrete",0,680.173474997291
"sub-007",7,"Mountain","Concrete",1,603.236615581541
"sub-007",8,"Phone","Concrete",0,736.17007830447
"sub-007",9,"Compassion","Abstract",1,315.533606350798
"sub-007",10,"Creativity","Abstract",1,226.13111761293
"sub-007",11,"Window","Concrete",0,873.609681936281
"sub-007",12,"Road","Concrete",1,826.630789715024
"sub-007",13,"Happiness","Abstract",1,333.053637456732
"sub-007",14,"Freedom","Abstract",0,290.855642164068
"sub-007",15,"Shoe","Concrete",1,235.526065641026
"sub-007",16,"Peace","Abstract",1,417.711060794395
"sub-007",17,"Knowledge","Abstract",1,459.101991240386
"sub-007",18,"Ambition","Abstract",1,665.597756539352
"sub-007",19,"Bridge","Concrete",1,173.006423718653
"sub-007",20,"Computer","Concrete",1,359.032937317056
"sub-007",21,"Trust","Abstract",1,473.892611646756
"sub-007",22,"Boat","Concrete",1,451.4779490092
"sub-007",23,"Love","Abstract",0,700.806706360033
"sub-007",24,"River","Concrete",0,794.79380931495
"sub-007",25,"Integrity","Abstract",1,662.554610996361
"sub-007",26,"Justice","Abstract",1,790.281788503006
"sub-007",27,"Garden","Concrete",1,410.221740745121
"sub-007",28,"Humility","Abstract",1,291.059811957149
"sub-007",29,"Honesty","Abstract",1,808.213857615503
"sub-007",30,"Chair","Concrete",0,530.035461146455
"sub-007",31,"Success","Abstract",1,275.193666738516
"sub-007",32,"Dog","Concrete",1,366.891133536255
"sub-007",33,"Gratitude","Abstract",1,835.847226471914
"sub-007",34,"Table","Concrete",0,554.841889675982
"sub-007",35,"Courage","Abstract",0,500.196067237157
"sub-007",36,"School","Concrete",1,510.514769212689
"sub-007",37,"Tree","Concrete",1,753.121010944811
"sub-007",38,"Book","Concrete",1,548.065134897799
"sub-007",39,"Beach","Concrete",1,401.100715022902
"sub-007",40,"Faith","Abstract",1,376.065083322889
"sub-007",41,"Hope","Abstract",1,862.689495581838
"sub-007",42,"Loyalty","Abstract",1,797.649464797355
"sub-007",43,"Car","Concrete",0,597.612916023739
"sub-007",44,"Apple","Concrete",1,477.598436248908
"sub-007",45,"Hospital","Concrete",1,361.336534017476
"sub-007",46,"Wisdom","Abstract",0,197.199136811243
"sub-007",47,"Patience","Abstract",1,467.592728478877
"sub-007",48,"Park","Concrete",1,727.31503992467
"sub-007",49,"Generosity","Abstract",1,567.4884140361
"sub-007",50,"Determination","Abstract",1,587.404310367952
"sub-008",1,"Gratitude","Abstract",1,525.629573915549
"sub-008",2,"Compassion","Abstract",0,695.222401111328
"sub-008",3,"Determination","Abstract",1,629.781869258794
"sub-008",4,"Lamp","Concrete",0,523.701820575007
"sub-008",5,"Trust","Abstract",1,993.823173871958
"sub-008",6,"Ambition","Abstract",1,333.216667744817
"sub-008",7,"Beach","Concrete",1,663.287229361108
"sub-008",8,"Generosity","Abstract",1,1024.26678660441
"sub-008",9,"Road","Concrete",0,192.247554017446
"sub-008",10,"Freedom","Abstract",1,707.442746757975
"sub-008",11,"Shoe","Concrete",0,781.547644991146
"sub-008",12,"Honesty","Abstract",1,628.781999915597
"sub-008",13,"Happiness","Abstract",1,522.105133979278
"sub-008",14,"Apple","Concrete",0,42.0434048356468
"sub-008",15,"Hospital","Concrete",0,486.008976531273
"sub-008",16,"Book","Concrete",1,303.205973344714
"sub-008",17,"Peace","Abstract",1,948.707262450571
"sub-008",18,"Chair","Concrete",0,257.849624876154
"sub-008",19,"Success","Abstract",1,571.676699891937
"sub-008",20,"Phone","Concrete",0,463.110093092628
"sub-008",21,"Respect","Abstract",0,289.017110094463
"sub-008",22,"Boat","Concrete",1,584.818519830499
"sub-008",23,"Mountain","Concrete",0,682.946553906
"sub-008",24,"Train","Concrete",0,330.987362975033
"sub-008",25,"Love","Abstract",1,644.267053580865
"sub-008",26,"Computer","Concrete",1,652.65043345632
"sub-008",27,"House","Concrete",0,-12.8850243928625
"sub-008",28,"Humility","Abstract",1,719.181370346167
"sub-008",29,"Bridge","Concrete",1,391.269513106815
"sub-008",30,"Camera","Concrete",1,940.376555186214
"sub-008",31,"Integrity","Abstract",1,567.229101967319
"sub-008",32,"Park","Concrete",1,466.720905695577
"sub-008",33,"Faith","Abstract",1,746.78334003572
"sub-008",34,"Garden","Concrete",0,396.712356965099
"sub-008",35,"Hope","Abstract",0,373.096484168951
"sub-008",36,"Dog","Concrete",1,537.035004962663
"sub-008",37,"Patience","Abstract",1,79.5537772781875
"sub-008",38,"School","Concrete",0,571.755782800879
"sub-008",39,"Friendship","Abstract",1,358.587526776133
"sub-008",40,"Car","Concrete",0,932.190406339471
"sub-008",41,"River","Concrete",1,728.738333222818
"sub-008",42,"Justice","Abstract",1,375.088748637163
"sub-008",43,"Loyalty","Abstract",1,697.848746595437
"sub-008",44,"Window","Concrete",1,759.66371102601
"sub-008",45,"Tree","Concrete",0,532.884296255685
"sub-008",46,"Creativity","Abstract",0,551.672155985677
"sub-008",47,"Knowledge","Abstract",1,722.804055292711
"sub-008",48,"Wisdom","Abstract",0,486.48984688919
"sub-008",49,"Table","Concrete",0,594.971711153696
"sub-008",50,"Courage","Abstract",1,743.068200456121
"sub-009",1,"Wisdom","Abstract",0,95.701828709618
"sub-009",2,"Justice","Abstract",0,802.577874165847
"sub-009",3,"Respect","Abstract",1,657.077712998454
"sub-009",4,"Ambition","Abstract",1,1040.24442039424
"sub-009",5,"Peace","Abstract",1,357.906982799157
"sub-009",6,"Hope","Abstract",1,364.419411796378
"sub-009",7,"Love","Abstract",0,902.231701495171
"sub-009",8,"Integrity","Abstract",0,481.125289395448
"sub-009",9,"Table","Concrete",1,716.445826545751
"sub-009",10,"Road","Concrete",0,568.618785102852
"sub-009",11,"Patience","Abstract",1,589.514680809887
"sub-009",12,"Shoe","Concrete",0,365.407468047042
"sub-009",13,"Loyalty","Abstract",1,734.001104938056
"sub-009",14,"Chair","Concrete",1,540.989647208287
"sub-009",15,"Gratitude","Abstract",1,708.416354385295
"sub-009",16,"Tree","Concrete",1,522.714424475725
"sub-009",17,"Computer","Concrete",1,436.197292413915
"sub-009",18,"Park","Concrete",1,123.214284544067
"sub-009",19,"Apple","Concrete",0,461.832122568529
"sub-009",20,"Success","Abstract",1,943.95409252424
"sub-009",21,"Courage","Abstract",1,891.200746829365
"sub-009",22,"Bridge","Concrete",1,326.007374624052
"sub-009",23,"Creativity","Abstract",1,736.255557555236
"sub-009",24,"Phone","Concrete",0,477.976161729926
"sub-009",25,"Faith","Abstract",1,590.371207909196
"sub-009",26,"Friendship","Abstract",1,374.68277157081
"sub-009",27,"Car","Concrete",1,762.823839079914
"sub-009",28,"Boat","Concrete",1,120.878115657839
"sub-009",29,"River","Concrete",1,123.094483860671
"sub-009",30,"Honesty","Abstract",0,720.392358054176
"sub-009",31,"Window","Concrete",1,207.925006801283
"sub-009",32,"Determination","Abstract",1,558.726214217031
"sub-009",33,"Mountain","Concrete",0,534.843714831889
"sub-009",34,"Humility","Abstract",1,604.68446238861
"sub-009",35,"Lamp","Concrete",1,833.785267647465
"sub-009",36,"Happiness","Abstract",1,513.507170455317
"sub-009",37,"Compassion","Abstract",1,654.097890621552
"sub-009",38,"Camera","Concrete",1,169.137947647904
"sub-009",39,"Garden","Concrete",1,335.136736128258
"sub-009",40,"Trust","Abstract",1,615.643729812948
"sub-009",41,"Hospital","Concrete",1,327.106396245005
"sub-009",42,"Beach","Concrete",0,644.417260878625
"sub-009",43,"School","Concrete",0,601.147437057954
"sub-009",44,"Book","Concrete",1,465.279448004865
"sub-009",45,"Generosity","Abstract",0,509.75840820887
"sub-009",46,"Freedom","Abstract",0,434.548382799024
"sub-009",47,"House","Concrete",1,298.291294494576
"sub-009",48,"Knowledge","Abstract",1,568.399750817454
"sub-009",49,"Dog","Concrete",0,494.708397033716
"sub-009",50,"Train","Concrete",1,661.103844410081
"sub-010",1,"Mountain","Concrete",1,548.358153184762
"sub-010",2,"Computer","Concrete",0,165.936670076387
"sub-010",3,"Peace","Abstract",1,727.865190073236
"sub-010",4,"Park","Concrete",0,439.828937683053
"sub-010",5,"Compassion","Abstract",1,130.30599186213
"sub-010",6,"Trust","Abstract",1,374.8473693872
"sub-010",7,"House","Concrete",0,654.502658273623
"sub-010",8,"Knowledge","Abstract",1,512.523001331641
"sub-010",9,"Dog","Concrete",1,570.468427462911
"sub-010",10,"Road","Concrete",1,589.443223357143
"sub-010",11,"Wisdom","Abstract",1,908.302106078452
"sub-010",12,"Window","Concrete",1,370.471567726624
"sub-010",13,"Success","Abstract",0,686.790677973626
"sub-010",14,"Love","Abstract",1,523.005980878888
"sub-010",15,"Apple","Concrete",0,511.742533932752
"sub-010",16,"Humility","Abstract",1,787.159914096673
"sub-010",17,"Courage","Abstract",1,483.072367259154
"sub-010",18,"Camera","Concrete",0,298.136715409735
"sub-010",19,"Integrity","Abstract",1,751.733612942478
"sub-010",20,"Hospital","Concrete",1,519.780431640752
"sub-010",21,"Garden","Concrete",1,590.071809890959
"sub-010",22,"Hope","Abstract",1,691.195004025918
"sub-010",23,"Gratitude","Abstract",1,605.017679372196
"sub-010",24,"Train","Concrete",1,272.133227071097
"sub-010",25,"Ambition","Abstract",1,298.757019234284
"sub-010",26,"Respect","Abstract",1,781.89594688891
"sub-010",27,"School","Concrete",1,406.389920243076
"sub-010",28,"Tree","Concrete",1,415.637995664274
"sub-010",29,"Book","Concrete",0,526.954893037918
"sub-010",30,"Phone","Concrete",1,511.761653610576
"sub-010",31,"Freedom","Abstract",1,738.03618589744
"sub-010",32,"Creativity","Abstract",1,800.835502589241
"sub-010",33,"Patience","Abstract",1,276.806615930909
"sub-010",34,"River","Concrete",0,399.061007411246
"sub-010",35,"Happiness","Abstract",1,638.079042986877
"sub-010",36,"Table","Concrete",1,435.787181947305
"sub-010",37,"Car","Concrete",0,702.809026508801
"sub-010",38,"Friendship","Abstract",1,878.723443996212
"sub-010",39,"Beach","Concrete",1,607.789949058638
"sub-010",40,"Shoe","Concrete",0,558.650479266492
"sub-010",41,"Faith","Abstract",1,182.39533494105
"sub-010",42,"Bridge","Concrete",0,642.198952877111
"sub-010",43,"Boat","Concrete",1,852.296172569269
"sub-010",44,"Generosity","Abstract",1,529.384221504006
"sub-010",45,"Honesty","Abstract",1,632.033905390932
"sub-010",46,"Loyalty","Abstract",1,718.740634889333
"sub-010",47,"Chair","Concrete",0,28.748689697582
"sub-010",48,"Lamp","Concrete",1,735.730359519461
"sub-010",49,"Justice","Abstract",1,224.141672029253
"sub-010",50,"Determination","Abstract",1,662.973198449307
"sub-011",1,"Phone","Concrete",1,460.205894205922
"sub-011",2,"Window","Concrete",0,395.767494856035
"sub-011",3,"Lamp","Concrete",0,526.425454588297
"sub-011",4,"Creativity","Abstract",0,302.984511067335
"sub-011",5,"Determination","Abstract",1,657.889872818194
"sub-011",6,"School","Concrete",0,320.629729764542
"sub-011",7,"Courage","Abstract",1,793.282796763851
"sub-011",8,"Mountain","Concrete",0,712.622096493558
"sub-011",9,"Apple","Concrete",1,283.488070264069
"sub-011",10,"Road","Concrete",1,467.128222087754
"sub-011",11,"Justice","Abstract",1,625.621026473833
"sub-011",12,"Park","Concrete",0,343.448398558745
"sub-011",13,"Honesty","Abstract",1,510.219587389618
"sub-011",14,"Peace","Abstract",1,351.807473915424
"sub-011",15,"Wisdom","Abstract",1,649.249900963624
"sub-011",16,"Beach","Concrete",1,321.461638038524
"sub-011",17,"Computer","Concrete",0,408.040631903938
"sub-011",18,"Humility","Abstract",1,443.58603863179
"sub-011",19,"Freedom","Abstract",1,456.489549550028
"sub-011",20,"Shoe","Concrete",1,503.147766389737
"sub-011",21,"Loyalty","Abstract",1,402.832602836564
"sub-011",22,"Car","Concrete",1,348.19847567445
"sub-011",23,"Train","Concrete",1,308.94504424455
"sub-011",24,"Friendship","Abstract",1,655.331893725699
"sub-011",25,"House","Concrete",1,351.787084216766
"sub-011",26,"Tree","Concrete",1,903.502090224917
"sub-011",27,"Hope","Abstract",1,1002.46588255219
"sub-011",28,"Love","Abstract",1,470.16801220263
"sub-011",29,"Compassion","Abstract",1,693.918564013853
"sub-011",30,"Bridge","Concrete",1,508.210496085088
"sub-011",31,"Garden","Concrete",1,682.86261433012
"sub-011",32,"Generosity","Abstract",1,573.990889446154
"sub-011",33,"River","Concrete",1,122.237019454895
"sub-011",34,"Camera","Concrete",0,71.030435641409
"sub-011",35,"Faith","Abstract",1,603.579719682023
"sub-011",36,"Table","Concrete",1,352.240908899651
"sub-011",37,"Trust","Abstract",1,1052.35315548896
"sub-011",38,"Success","Abstract",0,545.365059511564
"sub-011",39,"Chair","Concrete",1,312.873009501371
"sub-011",40,"Patience","Abstract",1,648.67877280895
"sub-011",41,"Dog","Concrete",1,783.526405264534
"sub-011",42,"Book","Concrete",0,165.013709107613
"sub-011",43,"Integrity","Abstract",1,511.049683271118
"sub-011",44,"Happiness","Abstract",1,624.767461038261
"sub-011",45,"Hospital","Concrete",0,311.702664352095
"sub-011",46,"Respect","Abstract",1,425.439407350908
"sub-011",47,"Gratitude","Abstract",1,126.51219453639
"sub-011",48,"Ambition","Abstract",1,431.485616441272
"sub-011",49,"Boat","Concrete",1,230.681239722919
"sub-011",50,"Knowledge","Abstract",1,201.032230109484
"sub-012",1,"Boat","Concrete",0,850.331320512639
"sub-012",2,"Trust","Abstract",1,893.955813646805
"sub-012",3,"Success","Abstract",1,910.964169093219
"sub-012",4,"Freedom","Abstract",1,204.926137168184
"sub-012",5,"Park","Concrete",1,449.956641942675
"sub-012",6,"Car","Concrete",1,481.130837678511
"sub-012",7,"Humility","Abstract",1,647.267852284169
"sub-012",8,"Ambition","Abstract",1,889.60449933896
"sub-012",9,"Respect","Abstract",1,655.178884071618
"sub-012",10,"Patience","Abstract",1,960.848692877368
"sub-012",11,"Creativity","Abstract",1,480.930664236858
"sub-012",12,"Garden","Concrete",0,441.922230008326
"sub-012",13,"House","Concrete",0,438.763367316282
"sub-012",14,"Compassion","Abstract",1,446.064025202144
"sub-012",15,"Mountain","Concrete",1,432.014436476195
"sub-012",16,"River","Concrete",0,545.424898322579
"sub-012",17,"Apple","Concrete",0,274.628346933229
"sub-012",18,"Justice","Abstract",1,6.42584385167072
"sub-012",19,"Book","Concrete",0,545.12419828874
"sub-012",20,"Computer","Concrete",1,434.406227710464
"sub-012",21,"Peace","Abstract",1,541.519291516873
"sub-012",22,"Shoe","Concrete",0,555.50024293439
"sub-012",23,"Wisdom","Abstract",0,857.239012610703
"sub-012",24,"Love","Abstract",1,655.2083955538
"sub-012",25,"Generosity","Abstract",1,353.904043669446
"sub-012",26,"Courage","Abstract",1,443.163573550137
"sub-012",27,"Hospital","Concrete",0,613.311517194579
"sub-012",28,"Train","Concrete",0,654.474611239503
"sub-012",29,"Honesty","Abstract",1,313.19118374634
"sub-012",30,"Table","Concrete",0,216.535192104185
"sub-012",31,"Loyalty","Abstract",1,661.413601831319
"sub-012",32,"Integrity","Abstract",0,136.088359866053
"sub-012",33,"Hope","Abstract",1,647.970970931564
"sub-012",34,"Friendship","Abstract",1,529.350135440958
"sub-012",35,"Window","Concrete",0,259.130496013636
"sub-012",36,"Lamp","Concrete",0,466.921318959771
"sub-012",37,"Faith","Abstract",1,588.615581602193
"sub-012",38,"Camera","Concrete",1,176.969454306567
"sub-012",39,"Happiness","Abstract",1,324.222185283871
"sub-012",40,"Bridge","Concrete",1,494.382457386745
"sub-012",41,"Gratitude","Abstract",1,405.604085931634
"sub-012",42,"School","Concrete",1,344.186415409929
"sub-012",43,"Tree","Concrete",1,706.976003444546
"sub-012",44,"Dog","Concrete",1,437.65268114796
"sub-012",45,"Beach","Concrete",1,371.287622772197
"sub-012",46,"Phone","Concrete",1,548.708296190525
"sub-012",47,"Road","Concrete",0,758.345051107609
"sub-012",48,"Determination","Abstract",1,518.046617311112
"sub-012",49,"Chair","Concrete",1,346.553893774815
"sub-012",50,"Knowledge","Abstract",1,565.377126990186
"sub-013",1,"Car","Concrete",1,835.112211330166
"sub-013",2,"Creativity","Abstract",1,276.020207332157
"sub-013",3,"Trust","Abstract",0,555.49997901948
"sub-013",4,"Shoe","Concrete",1,456.089186068672
"sub-013",5,"Boat","Concrete",0,106.147773794151
"sub-013",6,"Honesty","Abstract",1,515.028200669236
"sub-013",7,"Compassion","Abstract",1,463.478405386992
"sub-013",8,"Generosity","Abstract",1,578.344808309116
"sub-013",9,"Courage","Abstract",0,613.954190724989
"sub-013",10,"Humility","Abstract",1,767.634969110278
"sub-013",11,"River","Concrete",0,577.042102973803
"sub-013",12,"Table","Concrete",1,397.911758200223
"sub-013",13,"Knowledge","Abstract",1,822.400025802726
"sub-013",14,"Loyalty","Abstract",0,132.336394958305
"sub-013",15,"School","Concrete",0,508.723523460909
"sub-013",16,"Beach","Concrete",0,561.598614205298
"sub-013",17,"Hope","Abstract",1,501.582917021684
"sub-013",18,"Ambition","Abstract",1,568.243706463321
"sub-013",19,"Park","Concrete",1,650.314500740467
"sub-013",20,"Chair","Concrete",1,587.211779246492
"sub-013",21,"Love","Abstract",1,467.607527260123
"sub-013",22,"Justice","Abstract",0,654.91304168331
"sub-013",23,"Gratitude","Abstract",1,512.261185172945
"sub-013",24,"Success","Abstract",1,785.697810193055
"sub-013",25,"Garden","Concrete",1,436.120547165819
"sub-013",26,"Wisdom","Abstract",1,778.410115301258
"sub-013",27,"Camera","Concrete",1,749.052638172019
"sub-013",28,"Respect","Abstract",1,945.268121469921
"sub-013",29,"Patience","Abstract",0,459.406120193792
"sub-013",30,"Tree","Concrete",0,700.03376643097
"sub-013",31,"Book","Concrete",0,308.662233024732
"sub-013",32,"House","Concrete",0,59.3624498826862
"sub-013",33,"Peace","Abstract",1,528.340084570873
"sub-013",34,"Lamp","Concrete",0,583.572962265895
"sub-013",35,"Faith","Abstract",1,480.48610996985
"sub-013",36,"Apple","Concrete",0,427.57703186992
"sub-013",37,"Bridge","Concrete",1,622.973794653322
"sub-013",38,"Mountain","Concrete",0,893.866507926675
"sub-013",39,"Happiness","Abstract",0,686.161478073543
"sub-013",40,"Integrity","Abstract",1,-34.4514950894827
"sub-013",41,"Road","Concrete",1,421.868187684713
"sub-013",42,"Friendship","Abstract",1,893.553062175874
"sub-013",43,"Hospital","Concrete",1,510.48657215016
"sub-013",44,"Dog","Concrete",1,552.924840991661
"sub-013",45,"Determination","Abstract",1,584.410962964525
"sub-013",46,"Phone","Concrete",1,537.532298394318
"sub-013",47,"Train","Concrete",0,334.889816958931
"sub-013",48,"Computer","Concrete",1,499.920311904429
"sub-013",49,"Window","Concrete",1,292.032585012133
"sub-013",50,"Freedom","Abstract",1,677.52858666845
"sub-014",1,"Lamp","Concrete",0,382.390417835782
"sub-014",2,"Apple","Concrete",0,378.840503078803
"sub-014",3,"Road","Concrete",0,454.08200248781
"sub-014",4,"Faith","Abstract",0,330.848643802
"sub-014",5,"House","Concrete",0,109.625832460229
"sub-014",6,"Ambition","Abstract",1,339.758127843002
"sub-014",7,"Book","Concrete",1,521.846416070906
"sub-014",8,"Train","Concrete",1,721.252684519579
"sub-014",9,"Boat","Concrete",1,343.389545268802
"sub-014",10,"Phone","Concrete",1,525.558474237756
"sub-014",11,"Camera","Concrete",1,685.529865306101
"sub-014",12,"Integrity","Abstract",1,572.69409427141
"sub-014",13,"Bridge","Concrete",1,139.761408156105
"sub-014",14,"Gratitude","Abstract",1,457.328230761048
"sub-014",15,"Shoe","Concrete",0,914.375182328657
"sub-014",16,"River","Concrete",1,681.769732559012
"sub-014",17,"Chair","Concrete",0,510.25392829477
"sub-014",18,"Dog","Concrete",1,587.359267350502
"sub-014",19,"Friendship","Abstract",0,843.602860685824
"sub-014",20,"Knowledge","Abstract",1,651.347319917774
"sub-014",21,"Mountain","Concrete",0,298.324641441769
"sub-014",22,"Happiness","Abstract",1,626.756661340991
"sub-014",23,"Justice","Abstract",1,284.957910717801
"sub-014",24,"Car","Concrete",0,246.258525690383
"sub-014",25,"Courage","Abstract",1,397.489575614483
"sub-014",26,"Tree","Concrete",1,726.966173410489
"sub-014",27,"Loyalty","Abstract",1,673.781141302355
"sub-014",28,"Trust","Abstract",1,515.886677763837
"sub-014",29,"Honesty","Abstract",1,234.136018897087
"sub-014",30,"Hospital","Concrete",1,67.3318630693271
"sub-014",31,"School","Concrete",0,361.052918351452
"sub-014",32,"Determination","Abstract",1,676.705186617428
"sub-014",33,"Peace","Abstract",1,270.958065430827
"sub-014",34,"Table","Concrete",1,473.601651191361
"sub-014",35,"Beach","Concrete",0,71.4832456486923
"sub-014",36,"Generosity","Abstract",0,446.969296540398
"sub-014",37,"Wisdom","Abstract",1,517.735488126211
"sub-014",38,"Success","Abstract",1,487.742315075766
"sub-014",39,"Park","Concrete",1,548.450176206812
"sub-014",40,"Creativity","Abstract",1,718.141992946126
"sub-014",41,"Freedom","Abstract",1,552.836911283069
"sub-014",42,"Humility","Abstract",0,461.436435409524
"sub-014",43,"Computer","Concrete",0,734.450055264319
"sub-014",44,"Hope","Abstract",1,265.44917017946
"sub-014",45,"Compassion","Abstract",1,461.911458716048
"sub-014",46,"Window","Concrete",0,692.805116950634
"sub-014",47,"Respect","Abstract",1,449.780413920152
"sub-014",48,"Patience","Abstract",1,611.672225788227
"sub-014",49,"Love","Abstract",0,702.931569264798
"sub-014",50,"Garden","Concrete",1,731.406320204153
"sub-015",1,"Boat","Concrete",1,752.463578334757
"sub-015",2,"Love","Abstract",1,357.393597140241
"sub-015",3,"Car","Concrete",0,463.371138742994
"sub-015",4,"Book","Concrete",0,761.786116425573
"sub-015",5,"School","Concrete",0,524.861309268017
"sub-015",6,"Knowledge","Abstract",1,440.555590625621
"sub-015",7,"Respect","Abstract",1,556.294522908366
"sub-015",8,"Hope","Abstract",1,528.559279338489
"sub-015",9,"Wisdom","Abstract",1,424.031319052034
"sub-015",10,"Park","Concrete",1,632.817108886486
"sub-015",11,"Trust","Abstract",1,653.570334839078
"sub-015",12,"Beach","Concrete",0,479.303919063029
"sub-015",13,"Integrity","Abstract",1,588.510200833709
"sub-015",14,"Friendship","Abstract",1,426.43422720371
"sub-015",15,"Gratitude","Abstract",1,622.216471917504
"sub-015",16,"Justice","Abstract",1,504.312178540778
"sub-015",17,"Freedom","Abstract",1,62.8035620228792
"sub-015",18,"River","Concrete",1,791.396355490258
"sub-015",19,"Dog","Concrete",0,405.04839319137
"sub-015",20,"Computer","Concrete",1,460.655219514793
"sub-015",21,"Table","Concrete",1,434.093471350965
"sub-015",22,"Hospital","Concrete",1,198.823240493709
"sub-015",23,"Tree","Concrete",1,475.665102463501
"sub-015",24,"Phone","Concrete",1,877.279462172817
"sub-015",25,"Chair","Concrete",1,606.276925846579
"sub-015",26,"Success","Abstract",0,240.463737185922
"sub-015",27,"Apple","Concrete",1,385.198497445776
"sub-015",28,"Bridge","Concrete",0,673.557786262127
"sub-015",29,"Patience","Abstract",0,485.193055853838
"sub-015",30,"Train","Concrete",1,895.547746659742
"sub-015",31,"Happiness","Abstract",1,735.208414558054
"sub-015",32,"Peace","Abstract",0,487.866799329634
"sub-015",33,"Courage","Abstract",1,449.513248133292
"sub-015",34,"Road","Concrete",0,512.698969019841
"sub-015",35,"Compassion","Abstract",1,596.837012055672
"sub-015",36,"Camera","Concrete",0,496.28785287395
"sub-015",37,"Mountain","Concrete",1,338.502319726805
"sub-015",38,"Window","Concrete",1,705.22392720958
"sub-015",39,"Determination","Abstract",0,171.014724792848
"sub-015",40,"Garden","Concrete",1,560.84990182826
"sub-015",41,"Lamp","Concrete",0,472.38452312614
"sub-015",42,"Ambition","Abstract",1,618.696738888299
"sub-015",43,"Creativity","Abstract",0,51.8684278041679
"sub-015",44,"Shoe","Concrete",1,786.381141659456
"sub-015",45,"Humility","Abstract",1,252.996252704142
"sub-015",46,"Generosity","Abstract",1,311.461277100049
"sub-015",47,"House","Concrete",1,250.851960834151
"sub-015",48,"Honesty","Abstract",0,832.409449908193
"sub-015",49,"Loyalty","Abstract",1,246.370565768206
"sub-015",50,"Faith","Abstract",1,455.091997377918
"sub-016",1,"Car","Concrete",1,405.818530120007
"sub-016",2,"Chair","Concrete",0,443.072317935973
"sub-016",3,"Respect","Abstract",1,524.72560767581
"sub-016",4,"Generosity","Abstract",1,116.426349119702
"sub-016",5,"Patience","Abstract",1,390.37978727548
"sub-016",6,"Table","Concrete",1,1097.80668115741
"sub-016",7,"Tree","Concrete",0,940.352375236302
"sub-016",8,"School","Concrete",1,347.044246103323
"sub-016",9,"Park","Concrete",0,379.609002035912
"sub-016",10,"Justice","Abstract",1,362.226409306204
"sub-016",11,"Apple","Concrete",1,572.286751308213
"sub-016",12,"Hospital","Concrete",1,394.101297493305
"sub-016",13,"Gratitude","Abstract",1,471.760012014609
"sub-016",14,"River","Concrete",1,707.995812619096
"sub-016",15,"Integrity","Abstract",0,46.3203696150526
"sub-016",16,"Garden","Concrete",1,620.290210138097
"sub-016",17,"Dog","Concrete",0,648.728154566013
"sub-016",18,"Ambition","Abstract",1,319.707446792896
"sub-016",19,"Bridge","Concrete",0,279.836459971047
"sub-016",20,"Lamp","Concrete",0,578.385963706026
"sub-016",21,"Loyalty","Abstract",1,892.923972041208
"sub-016",22,"House","Concrete",0,236.769685432628
"sub-016",23,"Book","Concrete",1,912.158380247111
"sub-016",24,"Honesty","Abstract",1,369.704471675985
"sub-016",25,"Computer","Concrete",1,531.316781156378
"sub-016",26,"Road","Concrete",0,261.637165031913
"sub-016",27,"Knowledge","Abstract",1,875.831923646896
"sub-016",28,"Hope","Abstract",1,674.497080834477
"sub-016",29,"Freedom","Abstract",1,566.418787114654
"sub-016",30,"Faith","Abstract",1,650.609097641452
"sub-016",31,"Shoe","Concrete",0,426.744834932405
"sub-016",32,"Courage","Abstract",0,680.134514238395
"sub-016",33,"Window","Concrete",1,454.665248979598
"sub-016",34,"Phone","Concrete",0,728.41786761649
"sub-016",35,"Love","Abstract",1,150.743866321799
"sub-016",36,"Camera","Concrete",0,524.737393902846
"sub-016",37,"Train","Concrete",0,569.3925456497
"sub-016",38,"Success","Abstract",1,693.801696701642
"sub-016",39,"Determination","Abstract",1,410.810288238158
"sub-016",40,"Humility","Abstract",1,843.399602656783
"sub-016",41,"Beach","Concrete",1,102.080220928909
"sub-016",42,"Peace","Abstract",1,616.426257714414
"sub-016",43,"Trust","Abstract",1,846.635695785938
"sub-016",44,"Happiness","Abstract",1,405.767583212557
"sub-016",45,"Friendship","Abstract",1,171.212307510644
"sub-016",46,"Wisdom","Abstract",1,956.039656307289
"sub-016",47,"Mountain","Concrete",0,509.391697386454
"sub-016",48,"Creativity","Abstract",0,1018.25078878583
"sub-016",49,"Boat","Concrete",0,364.954550341182
"sub-016",50,"Compassion","Abstract",1,584.350225672439
"sub-017",1,"Honesty","Abstract",1,548.830013633196
"sub-017",2,"Window","Concrete",0,360.250198309836
"sub-017",3,"School","Concrete",1,813.923021911917
"sub-017",4,"Friendship","Abstract",1,570.703135765843
"sub-017",5,"River","Concrete",1,392.70570089844
"sub-017",6,"Road","Concrete",1,739.242281251279
"sub-017",7,"House","Concrete",1,149.380957120359
"sub-017",8,"Dog","Concrete",1,119.116097435185
"sub-017",9,"Hope","Abstract",1,496.90969315683
"sub-017",10,"Garden","Concrete",0,116.219131294039
"sub-017",11,"Table","Concrete",0,630.51618758084
"sub-017",12,"Car","Concrete",1,340.935924512728
"sub-017",13,"Humility","Abstract",1,297.943300561385
"sub-017",14,"Gratitude","Abstract",1,497.442684095929
"sub-017",15,"Camera","Concrete",0,663.46010311552
"sub-017",16,"Freedom","Abstract",1,663.853980932877
"sub-017",17,"Bridge","Concrete",1,643.746992402447
"sub-017",18,"Loyalty","Abstract",1,518.384282198469
"sub-017",19,"Trust","Abstract",1,434.979004416724
"sub-017",20,"Mountain","Concrete",1,281.70052879403
"sub-017",21,"Phone","Concrete",1,404.699919576276
"sub-017",22,"Love","Abstract",1,643.444719113292
"sub-017",23,"Tree","Concrete",1,477.539895120231
"sub-017",24,"Shoe","Concrete",1,419.392111032267
"sub-017",25,"Hospital","Concrete",0,248.600684270908
"sub-017",26,"Ambition","Abstract",1,883.940148812666
"sub-017",27,"Peace","Abstract",0,416.849476922012
"sub-017",28,"Wisdom","Abstract",1,348.352858063753
"sub-017",29,"Happiness","Abstract",0,392.519070595514
"sub-017",30,"Respect","Abstract",0,1036.66559239394
"sub-017",31,"Train","Concrete",1,698.620766665457
"sub-017",32,"Faith","Abstract",1,699.283522023702
"sub-017",33,"Success","Abstract",1,175.549020745899
"sub-017",34,"Compassion","Abstract",0,467.217407687636
"sub-017",35,"Patience","Abstract",1,213.05011479392
"sub-017",36,"Chair","Concrete",1,429.232495725639
"sub-017",37,"Knowledge","Abstract",1,384.970649090152
"sub-017",38,"Park","Concrete",0,437.68288810665
"sub-017",39,"Courage","Abstract",1,725.109826816398
"sub-017",40,"Computer","Concrete",0,869.451611531309
"sub-017",41,"Generosity","Abstract",1,818.254407515635
"sub-017",42,"Lamp","Concrete",1,553.616140007598
"sub-017",43,"Book","Concrete",1,397.457123502105
"sub-017",44,"Creativity","Abstract",0,634.964191608532
"sub-017",45,"Beach","Concrete",0,847.596343227449
"sub-017",46,"Determination","Abstract",1,135.386788380399
"sub-017",47,"Apple","Concrete",0,814.706447909804
"sub-017",48,"Boat","Concrete",1,891.717991147853
"sub-017",49,"Justice","Abstract",1,845.037926651552
"sub-017",50,"Integrity","Abstract",1,588.671388561612
"sub-018",1,"Friendship","Abstract",1,957.843652991148
"sub-018",2,"Train","Concrete",0,989.870357579882
"sub-018",3,"Mountain","Concrete",1,210.816356584724
"sub-018",4,"River","Concrete",0,446.383860352981
"sub-018",5,"Beach","Concrete",0,500.753600244026
"sub-018",6,"Love","Abstract",1,569.894030489154
"sub-018",7,"Compassion","Abstract",1,-44.4606427310765
"sub-018",8,"School","Concrete",0,519.034777966909
"sub-018",9,"Gratitude","Abstract",1,263.234210634675
"sub-018",10,"Apple","Concrete",0,885.73853194802
"sub-018",11,"Hope","Abstract",0,615.649347117448
"sub-018",12,"Park","Concrete",1,747.340272545563
"sub-018",13,"Dog","Concrete",1,468.45242754527
"sub-018",14,"Happiness","Abstract",0,819.133461485028
"sub-018",15,"Justice","Abstract",0,329.713499582933
"sub-018",16,"Window","Concrete",0,771.874491222695
"sub-018",17,"Generosity","Abstract",0,685.013923336447
"sub-018",18,"House","Concrete",0,381.472189888087
"sub-018",19,"Faith","Abstract",1,245.1965775208
"sub-018",20,"Shoe","Concrete",0,675.84869735934
"sub-018",21,"Lamp","Concrete",0,811.353555670707
"sub-018",22,"Computer","Concrete",1,430.164881207449
"sub-018",23,"Garden","Concrete",1,480.016277225437
"sub-018",24,"Wisdom","Abstract",1,853.836909790274
"sub-018",25,"Humility","Abstract",1,386.180892082797
"sub-018",26,"Boat","Concrete",1,707.045967381484
"sub-018",27,"Respect","Abstract",1,544.202046497844
"sub-018",28,"Patience","Abstract",1,809.757179032383
"sub-018",29,"Tree","Concrete",1,317.517938875147
"sub-018",30,"Trust","Abstract",1,262.906517522971
"sub-018",31,"Chair","Concrete",1,410.073698331722
"sub-018",32,"Knowledge","Abstract",1,426.337013695286
"sub-018",33,"Creativity","Abstract",1,691.577880405477
"sub-018",34,"Table","Concrete",0,486.554575281527
"sub-018",35,"Road","Concrete",0,194.439311350819
"sub-018",36,"Camera","Concrete",0,417.022533908115
"sub-018",37,"Loyalty","Abstract",1,477.221689013049
"sub-018",38,"Integrity","Abstract",0,664.425694677842
"sub-018",39,"Peace","Abstract",1,188.767097184348
"sub-018",40,"Ambition","Abstract",0,372.274699916723
"sub-018",41,"Bridge","Concrete",1,457.270180065819
"sub-018",42,"Hospital","Concrete",1,405.124558178385
"sub-018",43,"Honesty","Abstract",1,468.890236945913
"sub-018",44,"Success","Abstract",1,502.62578973721
"sub-018",45,"Car","Concrete",1,635.966389054912
"sub-018",46,"Freedom","Abstract",1,379.795246196632
"sub-018",47,"Phone","Concrete",0,432.395868947127
"sub-018",48,"Book","Concrete",1,390.400380209875
"sub-018",49,"Courage","Abstract",1,515.647766779165
"sub-018",50,"Determination","Abstract",0,1096.78458360558
"sub-019",1,"Success","Abstract",1,626.294231532222
"sub-019",2,"Respect","Abstract",1,676.594529398624
"sub-019",3,"Creativity","Abstract",0,527.07446593842
"sub-019",4,"Friendship","Abstract",1,759.620916423165
"sub-019",5,"Integrity","Abstract",1,667.004646365792
"sub-019",6,"Shoe","Concrete",1,617.53999769475
"sub-019",7,"Computer","Concrete",1,1010.23487212089
"sub-019",8,"Generosity","Abstract",1,891.727638451441
"sub-019",9,"Window","Concrete",1,328.44453661587
"sub-019",10,"Car","Concrete",0,372.946807849444
"sub-019",11,"Dog","Concrete",1,511.669691776032
"sub-019",12,"Train","Concrete",1,309.856166857543
"sub-019",13,"House","Concrete",1,357.773845480499
"sub-019",14,"Gratitude","Abstract",1,473.723279231073
"sub-019",15,"Camera","Concrete",0,503.261592382712
"sub-019",16,"Determination","Abstract",1,85.9545910273889
"sub-019",17,"Apple","Concrete",0,315.426666074826
"sub-019",18,"Tree","Concrete",1,403.553965968612
"sub-019",19,"Beach","Concrete",0,534.978620766064
"sub-019",20,"Compassion","Abstract",1,934.519453481308
"sub-019",21,"Lamp","Concrete",1,441.114027020114
"sub-019",22,"Park","Concrete",1,717.294715641513
"sub-019",23,"Hope","Abstract",1,236.070086943323
"sub-019",24,"Bridge","Concrete",0,800.109188039806
"sub-019",25,"Boat","Concrete",1,919.069016847564
"sub-019",26,"Courage","Abstract",1,453.631540746333
"sub-019",27,"Faith","Abstract",0,361.558336348578
"sub-019",28,"Freedom","Abstract",1,289.750433510099
"sub-019",29,"Book","Concrete",1,711.196525844545
"sub-019",30,"Loyalty","Abstract",1,446.618237381054
"sub-019",31,"Chair","Concrete",1,696.034169611368
"sub-019",32,"Patience","Abstract",1,514.119313433235
"sub-019",33,"Happiness","Abstract",1,114.965165607664
"sub-019",34,"Garden","Concrete",0,443.317775678161
"sub-019",35,"Mountain","Concrete",1,487.877875734696
"sub-019",36,"Knowledge","Abstract",1,399.724263358448
"sub-019",37,"Hospital","Concrete",1,536.083345908531
"sub-019",38,"Road","Concrete",0,849.684090781665
"sub-019",39,"Trust","Abstract",1,594.620326474413
"sub-019",40,"River","Concrete",1,211.2148990701
"sub-019",41,"Love","Abstract",0,894.814701018377
"sub-019",42,"Wisdom","Abstract",1,720.460910379731
"sub-019",43,"Peace","Abstract",0,255.284358971146
"sub-019",44,"Ambition","Abstract",1,422.754389106756
"sub-019",45,"Humility","Abstract",1,758.331277146093
"sub-019",46,"School","Concrete",1,442.159464138545
"sub-019",47,"Honesty","Abstract",0,432.162059047489
"sub-019",48,"Justice","Abstract",0,962.548514518136
"sub-019",49,"Phone","Concrete",1,429.191559705586
"sub-019",50,"Table","Concrete",0,508.245014987505
"sub-020",1,"Peace","Abstract",1,282.893791861981
"sub-020",2,"River","Concrete",0,634.042395475416
"sub-020",3,"Tree","Concrete",1,638.755751639313
"sub-020",4,"Garden","Concrete",1,672.897434297878
"sub-020",5,"Freedom","Abstract",1,313.951528456126
"sub-020",6,"School","Concrete",1,588.005503820527
"sub-020",7,"Courage","Abstract",1,581.904782087032
"sub-020",8,"Shoe","Concrete",1,376.371591474475
"sub-020",9,"Wisdom","Abstract",0,567.644946922335
"sub-020",10,"Park","Concrete",1,532.91601233969
"sub-020",11,"Honesty","Abstract",1,551.922154184273
"sub-020",12,"Gratitude","Abstract",1,893.975754214949
"sub-020",13,"Phone","Concrete",0,243.730016271054
"sub-020",14,"Patience","Abstract",0,338.687898339727
"sub-020",15,"Computer","Concrete",1,417.44945367484
"sub-020",16,"Bridge","Concrete",0,360.718864480871
"sub-020",17,"Justice","Abstract",1,904.106885852323
"sub-020",18,"Ambition","Abstract",1,321.062817873387
"sub-020",19,"Success","Abstract",1,575.451480516914
"sub-020",20,"Generosity","Abstract",0,495.575013712148
"sub-020",21,"Camera","Concrete",0,468.938198967541
"sub-020",22,"Chair","Concrete",1,206.790996943522
"sub-020",23,"Happiness","Abstract",1,523.988235489776
"sub-020",24,"Loyalty","Abstract",1,667.64843130103
"sub-020",25,"Respect","Abstract",1,514.717288032218
"sub-020",26,"Mountain","Concrete",1,547.198088352061
"sub-020",27,"Book","Concrete",1,516.17578284524
"sub-020",28,"Compassion","Abstract",1,713.199071971691
"sub-020",29,"Lamp","Concrete",0,467.018213819179
"sub-020",30,"Creativity","Abstract",1,576.543987853691
"sub-020",31,"Hospital","Concrete",0,423.218355282644
"sub-020",32,"Friendship","Abstract",1,670.273475180489
"sub-020",33,"Humility","Abstract",0,831.520122681869
"sub-020",34,"Faith","Abstract",1,572.33616614063
"sub-020",35,"Road","Concrete",0,370.813576491145
"sub-020",36,"Love","Abstract",1,468.663807539634
"sub-020",37,"Window","Concrete",1,325.909598251829
"sub-020",38,"House","Concrete",0,711.17500937727
"sub-020",39,"Determination","Abstract",1,803.416613538495
"sub-020",40,"Boat","Concrete",1,810.998517061489
"sub-020",41,"Trust","Abstract",1,741.798389119131
"sub-020",42,"Train","Concrete",1,712.338886593132
"sub-020",43,"Beach","Concrete",0,591.620153774688
"sub-020",44,"Knowledge","Abstract",1,646.211756892267
"sub-020",45,"Dog","Concrete",0,747.029643035911
"sub-020",46,"Integrity","Abstract",1,727.10222575243
"sub-020",47,"Car","Concrete",0,594.345646626023
"sub-020",48,"Table","Concrete",0,704.186914347867
"sub-020",49,"Apple","Concrete",1,324.787006051084
"sub-020",50,"Hope","Abstract",1,467.639163236427
