"Participant","Trial","Stimulus","Condition","TrialType","Accuracy","RT"
"sub-001",1,"Honesty","Abstract","New",1,368.83217934464
"sub-001",2,"Train","Abstract","New",1,679.795029962063
"sub-001",3,"Book","Concrete","Old",0,545.732944821271
"sub-001",4,"River","Concrete","New",0,798.318613765391
"sub-001",5,"Computer","Concrete","New",0,477.658515597592
"sub-001",6,"Boat","Abstract","Old",1,374.205784159765
"sub-001",7,"Creativity","Abstract","Old",1,470.365152679321
"sub-001",8,"Car","Concrete","New",0,299.359370963522
"sub-001",9,"Phone","Concrete","Old",1,497.387538168434
"sub-001",10,"Bridge","Concrete","Old",1,509.011245397729
"sub-001",11,"Happiness","Concrete","Old",1,522.357726711448
"sub-001",12,"Loyalty","Concrete","Old",1,645.126863776701
"sub-001",13,"Patience","Concrete","New",1,682.158476790105
"sub-001",14,"Love","Abstract","Old",1,377.863863501342
"sub-001",15,"Chair","Concrete","New",1,165.127094047882
"sub-001",16,"Freedom","Concrete","Old",1,801.474075268994
"sub-001",17,"Peace","Concrete","New",1,894.952278015547
"sub-001",18,"Car","Abstract","New",1,518.762199576543
"sub-001",19,"Table","Concrete","New",1,442.308729344187
"sub-001",20,"Phone","Abstract","Old",1,462.238873032676
"sub-001",21,"Patience","Abstract","New",1,356.814210629022
"sub-001",22,"Apple","Abstract","New",1,445.140917139719
"sub-001",23,"Determination","Concrete","New",1,521.298098339218
"sub-001",24,"Book","Abstract","Old",1,501.160709278617
"sub-001",25,"Bridge","Abstract","Old",1,737.155674780186
"sub-001",26,"Mountain","Concrete","Old",1,659.532992719205
"sub-001",27,"Garden","Concrete","Old",0,461.078358537892
"sub-001",28,"School","Abstract","New",1,1091.73160539969
"sub-001",29,"Integrity","Concrete","New",1,391.83344952669
"sub-001",30,"Boat","Concrete","Old",1,381.647927579777
"sub-001",31,"Train","Concrete","New",0,194.890472947895
"sub-001",32,"Park","Abstract","New",1,437.009945840729
"sub-001",33,"Freedom","Abstract","Old",1,509.563367721811
"sub-001",34,"Determination","Abstract","New",1,313.658588317181
"sub-001",35,"Generosity","Abstract","New",1,386.847249031147
"sub-001",36,"Trust","Concrete","New",1,349.261149220252
"sub-001",37,"Wisdom","Abstract","Old",1,854.051399416597
"sub-001",38,"Camera","Abstract","Old",1,623.577147018495
"sub-001",39,"Justice","Abstract","Old",1,697.874539553095
"sub-001",40,"Lamp","Abstract","New",1,702.648104022564
"sub-001",41,"Apple","Concrete","New",0,571.308546388985
"sub-001",42,"House","Abstract","Old",1,485.029047577221
"sub-001",43,"Compassion","Abstract","Old",1,386.043425262701
"sub-001",44,"Friendship","Abstract","Old",1,1033.94398159027
"sub-001",45,"Garden","Abstract","Old",1,255.277023524489
"sub-001",46,"House","Concrete","Old",1,389.724336440982
"sub-001",47,"Success","Concrete","New",1,277.166967333315
"sub-001",48,"Creativity","Concrete","Old",1,493.52730928492
"sub-001",49,"Compassion","Concrete","Old",1,449.731758825564
"sub-001",50,"Love","Concrete","Old",1,710.435319014739
"sub-001",51,"Peace","Abstract","New",1,495.249849082408
"sub-001",52,"River","Abstract","New",0,756.223231981323
"sub-001",53,"Generosity","Concrete","New",1,416.919640623222
"sub-001",54,"Ambition","Abstract","New",1,406.441963053828
"sub-001",55,"Shoe","Concrete","New",0,460.545841992207
"sub-001",56,"Knowledge","Concrete","Old",1,310.757747207884
"sub-001",57,"Window","Concrete","New",1,789.044688768645
"sub-001",58,"Wisdom","Concrete","Old",1,280.856469642652
"sub-001",59,"Happiness","Abstract","Old",1,573.702306655429
"sub-001",60,"Hospital","Abstract","New",0,281.966792672984
"sub-001",61,"Lamp","Concrete","New",1,724.431709397894
"sub-001",62,"Dog","Concrete","Old",0,805.231636243747
"sub-001",63,"Honesty","Concrete","New",1,471.908775151801
"sub-001",64,"Camera","Concrete","Old",1,675.212545066604
"sub-001",65,"Shoe","Abstract","New",0,441.554925407682
"sub-001",66,"Respect","Concrete","New",1,486.650348769625
"sub-001",67,"Ambition","Concrete","New",1,848.097010707563
"sub-001",68,"Faith","Concrete","Old",1,342.537661832006
"sub-001",69,"Justice","Concrete","Old",1,596.481871334101
"sub-001",70,"Humility","Abstract","Old",1,676.517199977289
"sub-001",71,"Courage","Concrete","Old",1,412.01827413883
"sub-001",72,"Friendship","Concrete","Old",1,608.768189719501
"sub-001",73,"Courage","Abstract","Old",1,654.347274890646
"sub-001",74,"Success","Abstract","New",1,336.055987774603
"sub-001",75,"Tree","Abstract","Old",1,936.636508476519
"sub-001",76,"Beach","Abstract","New",0,545.916523498569
"sub-001",77,"Road","Abstract","Old",1,451.423612577614
"sub-001",78,"Gratitude","Concrete","Old",1,743.877432721408
"sub-001",79,"Integrity","Abstract","New",1,323.901863423145
"sub-001",80,"Tree","Concrete","Old",1,771.712671366793
"sub-001",81,"Window","Abstract","New",1,715.916801815171
"sub-001",82,"Respect","Abstract","New",1,708.255261052042
"sub-001",83,"Beach","Concrete","New",0,187.100598349934
"sub-001",84,"Knowledge","Abstract","Old",1,297.715881675024
"sub-001",85,"Trust","Abstract","New",1,342.69939060126
"sub-001",86,"Table","Abstract","New",1,896.05564093791
"sub-001",87,"Faith","Abstract","Old",1,368.621623734876
"sub-001",88,"Hope","Abstract","New",1,557.494130600857
"sub-001",89,"Hospital","Concrete","New",0,935.852440328182
"sub-001",90,"Hope","Concrete","New",1,477.87304437589
"sub-001",91,"Loyalty","Abstract","Old",1,738.125295287484
"sub-001",92,"Chair","Abstract","New",1,358.389084366092
"sub-001",93,"Park","Concrete","New",0,451.205451065941
"sub-001",94,"Humility","Concrete","Old",1,653.311289749625
"sub-001",95,"Dog","Abstract","Old",1,370.584841651796
"sub-001",96,"Road","Concrete","Old",1,198.458557975524
"sub-001",97,"School","Concrete","New",1,276.759965297397
"sub-001",98,"Gratitude","Abstract","Old",1,540.695015447404
"sub-001",99,"Computer","Abstract","New",0,473.824094079183
"sub-001",100,"Mountain","Abstract","Old",1,490.281063097849
"sub-002",1,"Beach","Abstract","Old",1,199.834736409337
"sub-002",2,"Chair","Abstract","Old",0,562.772960894392
"sub-002",3,"Window","Concrete","New",0,378.691566401049
"sub-002",4,"Love","Concrete","New",1,745.489102207139
"sub-002",5,"Creativity","Abstract","New",1,333.359558771976
"sub-002",6,"Park","Abstract","New",1,674.844182528074
"sub-002",7,"Garden","Concrete","Old",1,868.782157309447
"sub-002",8,"Apple","Abstract","Old",0,554.967472184168
"sub-002",9,"Lamp","Concrete","New",0,625.872486056608
"sub-002",10,"Patience","Concrete","Old",1,606.815424896172
"sub-002",11,"Shoe","Concrete","Old",1,605.891722461397
"sub-002",12,"Chair","Concrete","Old",0,391.982741650238
"sub-002",13,"Car","Abstract","New",1,681.252914438789
"sub-002",14,"Gratitude","Concrete","New",1,45.4107737330444
"sub-002",15,"House","Abstract","Old",1,583.282722541895
"sub-002",16,"Tree","Concrete","New",1,313.063017092277
"sub-002",17,"Window","Abstract","New",1,492.02387217369
"sub-002",18,"Knowledge","Abstract","New",1,672.120091920109
"sub-002",19,"Bridge","Concrete","Old",1,635.6977376751
"sub-002",20,"Integrity","Abstract","Old",1,743.286531367554
"sub-002",21,"Bridge","Abstract","Old",1,196.155553983645
"sub-002",22,"Compassion","Abstract","New",1,1092.31327333065
"sub-002",23,"Friendship","Abstract","Old",1,534.072929945817
"sub-002",24,"Dog","Concrete","Old",1,281.124918571687
"sub-002",25,"Train","Abstract","New",0,527.265332472434
"sub-002",26,"Lamp","Abstract","New",1,598.745133388655
"sub-002",27,"Park","Concrete","New",1,730.305115226221
"sub-002",28,"River","Concrete","New",1,137.954731300775
"sub-002",29,"Honesty","Abstract","New",1,359.639732904645
"sub-002",30,"Camera","Abstract","New",1,502.635223366456
"sub-002",31,"Book","Abstract","Old",0,634.011949576263
"sub-002",32,"Wisdom","Abstract","Old",1,245.525460190076
"sub-002",33,"Car","Concrete","New",0,453.883172361203
"sub-002",34,"Garden","Abstract","Old",1,587.29816240573
"sub-002",35,"Patience","Abstract","Old",1,409.005941627955
"sub-002",36,"Hope","Abstract","New",1,365.089506257114
"sub-002",37,"Success","Concrete","New",1,34.2447716886033
"sub-002",38,"School","Concrete","New",0,471.288471922267
"sub-002",39,"Justice","Abstract","Old",1,365.511412804927
"sub-002",40,"School","Abstract","New",1,788.113338107626
"sub-002",41,"Success","Abstract","New",1,523.948586911533
"sub-002",42,"Boat","Concrete","Old",0,779.488057061987
"sub-002",43,"Hospital","Concrete","New",1,189.642566007066
"sub-002",44,"Freedom","Abstract","Old",1,386.10792984111
"sub-002",45,"Road","Abstract","Old",1,713.457457567987
"sub-002",46,"Generosity","Concrete","Old",1,620.590473861631
"sub-002",47,"Mountain","Concrete","Old",0,772.131876659129
"sub-002",48,"Integrity","Concrete","Old",1,877.725646628556
"sub-002",49,"Honesty","Concrete","New",1,364.16706700646
"sub-002",50,"Phone","Concrete","New",1,182.311716568295
"sub-002",51,"Gratitude","Abstract","New",1,479.002568303126
"sub-002",52,"Loyalty","Abstract","New",1,568.085536328618
"sub-002",53,"Generosity","Abstract","Old",1,818.881613483143
"sub-002",54,"Loyalty","Concrete","New",1,133.447955256711
"sub-002",55,"Courage","Concrete","Old",1,402.386173234999
"sub-002",56,"Peace","Concrete","Old",1,556.92645469545
"sub-002",57,"Justice","Concrete","Old",1,647.79417162656
"sub-002",58,"Hospital","Abstract","New",1,910.064377733757
"sub-002",59,"Computer","Abstract","New",1,188.761901049993
"sub-002",60,"Compassion","Concrete","New",1,338.093957360004
"sub-002",61,"Happiness","Concrete","New",1,960.371333127232
"sub-002",62,"Trust","Concrete","New",1,292.41617214847
"sub-002",63,"Humility","Concrete","New",1,204.566477466903
"sub-002",64,"Phone","Abstract","New",1,651.924334534624
"sub-002",65,"Beach","Concrete","Old",1,674.909360538209
"sub-002",66,"Wisdom","Concrete","Old",1,188.438598144627
"sub-002",67,"Road","Concrete","Old",0,368.573709433095
"sub-002",68,"Determination","Concrete","Old",1,126.758789051507
"sub-002",69,"Computer","Concrete","New",1,146.372761935303
"sub-002",70,"House","Concrete","Old",1,460.90018577383
"sub-002",71,"Dog","Abstract","Old",1,883.3252673659
"sub-002",72,"Respect","Concrete","New",1,582.293076455608
"sub-002",73,"Peace","Abstract","Old",1,680.861881742297
"sub-002",74,"River","Abstract","New",1,742.843197793626
"sub-002",75,"Tree","Abstract","New",1,691.836142043905
"sub-002",76,"Shoe","Abstract","Old",1,836.850631650522
"sub-002",77,"Book","Concrete","Old",0,629.275694749854
"sub-002",78,"Creativity","Concrete","New",1,902.268361214708
"sub-002",79,"Ambition","Abstract","Old",1,623.857283591018
"sub-002",80,"Faith","Concrete","Old",1,467.18984670621
"sub-002",81,"Ambition","Concrete","Old",1,254.265511517898
"sub-002",82,"Hope","Concrete","New",1,438.142180327664
"sub-002",83,"Happiness","Abstract","New",1,1213.28290377509
"sub-002",84,"Friendship","Concrete","Old",1,345.449375211526
"sub-002",85,"Table","Concrete","Old",0,673.036501043158
"sub-002",86,"Faith","Abstract","Old",1,697.002953221644
"sub-002",87,"Knowledge","Concrete","New",1,809.264160652615
"sub-002",88,"Mountain","Abstract","Old",0,338.93881796995
"sub-002",89,"Apple","Concrete","Old",0,445.085242049853
"sub-002",90,"Table","Abstract","Old",0,483.835092778535
"sub-002",91,"Camera","Concrete","New",1,650.751507842852
"sub-002",92,"Trust","Abstract","New",1,481.998087453944
"sub-002",93,"Courage","Abstract","Old",1,222.261534401975
"sub-002",94,"Humility","Abstract","New",1,669.757517635667
"sub-002",95,"Respect","Abstract","New",1,450.682682850968
"sub-002",96,"Train","Concrete","New",0,447.500902093737
"sub-002",97,"Determination","Abstract","Old",1,396.026344145741
"sub-002",98,"Love","Abstract","New",1,546.196540500366
"sub-002",99,"Freedom","Concrete","Old",1,130.67101261695
"sub-002",100,"Boat","Abstract","Old",1,828.226062118578
"sub-003",1,"Freedom","Concrete","Old",1,435.126538386518
"sub-003",2,"Garden","Concrete","New",1,521.211385144558
"sub-003",3,"Camera","Abstract","New",1,498.159910571328
"sub-003",4,"Happiness","Abstract","New",1,258.695627399949
"sub-003",5,"Happiness","Concrete","New",1,564.382495236652
"sub-003",6,"Loyalty","Abstract","New",1,780.287633007295
"sub-003",7,"Book","Concrete","Old",1,373.030151118778
"sub-003",8,"Determination","Concrete","New",1,688.2342608863
"sub-003",9,"Hospital","Concrete","Old",1,441.199314101809
"sub-003",10,"School","Abstract","Old",1,567.934995943348
"sub-003",11,"Gratitude","Concrete","New",1,557.370189735198
"sub-003",12,"Respect","Concrete","New",1,535.85689496234
"sub-003",13,"Patience","Abstract","New",1,862.9733308994
"sub-003",14,"Peace","Abstract","New",1,501.631452860066
"sub-003",15,"Integrity","Concrete","Old",1,373.278711404497
"sub-003",16,"Trust","Concrete","New",1,360.553600162064
"sub-003",17,"Lamp","Concrete","Old",1,667.278000261849
"sub-003",18,"Dog","Abstract","New",0,763.902565739823
"sub-003",19,"Computer","Abstract","New",0,270.622051419622
"sub-003",20,"Beach","Concrete","Old",0,686.044671817124
"sub-003",21,"Beach","Abstract","Old",0,795.709395181398
"sub-003",22,"Humility","Abstract","Old",1,678.839300289768
"sub-003",23,"Apple","Abstract","Old",0,613.724974227194
"sub-003",24,"Respect","Abstract","New",1,853.239983773699
"sub-003",25,"Park","Concrete","Old",1,816.868331698638
"sub-003",26,"Friendship","Abstract","New",1,505.936951199183
"sub-003",27,"Road","Abstract","Old",1,652.891954133022
"sub-003",28,"Love","Concrete","Old",1,401.358663586685
"sub-003",29,"Table","Abstract","Old",1,815.204141780264
"sub-003",30,"Table","Concrete","Old",1,353.506483939537
"sub-003",31,"Train","Abstract","New",1,153.085471383337
"sub-003",32,"Computer","Concrete","New",0,490.770934336059
"sub-003",33,"Humility","Concrete","Old",1,129.004845236795
"sub-003",34,"Integrity","Abstract","Old",1,666.084279054614
"sub-003",35,"Tree","Concrete","New",0,431.655045779153
"sub-003",36,"Window","Concrete","Old",0,51.9254668410227
"sub-003",37,"Trust","Abstract","New",1,689.884386782814
"sub-003",38,"Camera","Concrete","New",1,503.010202077469
"sub-003",39,"Generosity","Abstract","Old",1,723.091927113433
"sub-003",40,"Creativity","Abstract","New",1,870.815215228392
"sub-003",41,"Knowledge","Concrete","Old",1,773.820463761344
"sub-003",42,"Phone","Abstract","New",1,716.139858409954
"sub-003",43,"Ambition","Concrete","Old",1,520.893698825037
"sub-003",44,"River","Concrete","Old",1,427.851824812925
"sub-003",45,"Bridge","Concrete","New",0,432.508365673434
"sub-003",46,"Tree","Abstract","New",0,557.948246958406
"sub-003",47,"Faith","Abstract","Old",1,560.981759162193
"sub-003",48,"Ambition","Abstract","Old",1,378.871844985593
"sub-003",49,"Boat","Concrete","New",0,583.895411611444
"sub-003",50,"Freedom","Abstract","Old",1,820.310987456606
"sub-003",51,"Mountain","Concrete","New",0,357.482297542558
"sub-003",52,"Chair","Concrete","Old",1,565.858613415313
"sub-003",53,"Road","Concrete","Old",1,722.350352152619
"sub-003",54,"Courage","Abstract","Old",1,651.733042939757
"sub-003",55,"Courage","Concrete","Old",1,646.62552792871
"sub-003",56,"Shoe","Concrete","Old",1,292.287251698286
"sub-003",57,"Creativity","Concrete","New",1,415.357643986822
"sub-003",58,"Boat","Abstract","New",1,308.750209406661
"sub-003",59,"House","Abstract","New",1,559.283945998825
"sub-003",60,"Hospital","Abstract","Old",1,527.548489761514
"sub-003",61,"Park","Abstract","Old",1,550.477756000939
"sub-003",62,"Justice","Abstract","Old",1,453.953714025929
"sub-003",63,"Success","Concrete","New",1,754.740119881403
"sub-003",64,"Honesty","Concrete","New",1,232.26935969579
"sub-003",65,"Car","Abstract","Old",1,531.682853633456
"sub-003",66,"Friendship","Concrete","New",1,393.186094697175
"sub-003",67,"Gratitude","Abstract","New",1,608.772658981201
"sub-003",68,"House","Concrete","New",1,715.987200118707
"sub-003",69,"Book","Abstract","Old",1,566.020233193739
"sub-003",70,"Compassion","Abstract","Old",1,328.563965634399
"sub-003",71,"Phone","Concrete","New",0,510.410391656848
"sub-003",72,"Determination","Abstract","New",1,730.381607868921
"sub-003",73,"Faith","Concrete","Old",1,302.599821837516
"sub-003",74,"Chair","Abstract","Old",1,361.436007482239
"sub-003",75,"Apple","Concrete","Old",0,477.797304833373
"sub-003",76,"Car","Concrete","Old",0,431.361022724355
"sub-003",77,"Wisdom","Concrete","New",1,523.817180442268
"sub-003",78,"Loyalty","Concrete","New",1,414.760652607811
"sub-003",79,"Lamp","Abstract","Old",1,701.30575460377
"sub-003",80,"Success","Abstract","New",1,697.595940312066
"sub-003",81,"Dog","Concrete","New",0,662.588565812227
"sub-003",82,"Hope","Abstract","New",1,544.634845855538
"sub-003",83,"Love","Abstract","Old",1,431.77636878832
"sub-003",84,"Generosity","Concrete","Old",1,347.717280347023
"sub-003",85,"River","Abstract","Old",1,952.77161121116
"sub-003",86,"Hope","Concrete","New",1,758.405774491704
"sub-003",87,"Honesty","Abstract","New",1,563.112696185949
"sub-003",88,"Patience","Concrete","New",1,294.96331383428
"sub-003",89,"Knowledge","Abstract","Old",1,274.39896069024
"sub-003",90,"Compassion","Concrete","Old",1,301.29711653907
"sub-003",91,"Wisdom","Abstract","New",1,457.851508366773
"sub-003",92,"Window","Abstract","Old",0,661.755253245444
"sub-003",93,"Peace","Concrete","New",1,255.403279435525
"sub-003",94,"School","Concrete","Old",1,161.627050018338
"sub-003",95,"Mountain","Abstract","New",1,474.193264802978
"sub-003",96,"Shoe","Abstract","Old",1,528.296282074132
"sub-003",97,"Garden","Abstract","New",1,647.764382330591
"sub-003",98,"Justice","Concrete","Old",1,259.568588784179
"sub-003",99,"Train","Concrete","New",1,606.240208655316
"sub-003",100,"Bridge","Abstract","New",1,363.758875594494
"sub-004",1,"Generosity","Abstract","New",1,528.434563972745
"sub-004",2,"Mountain","Concrete","New",0,447.452053097151
"sub-004",3,"Table","Concrete","New",1,358.924260769256
"sub-004",4,"Wisdom","Abstract","Old",1,1009.07174729852
"sub-004",5,"Apple","Concrete","Old",0,628.244997144646
"sub-004",6,"Window","Concrete","New",0,387.765772602607
"sub-004",7,"Computer","Abstract","Old",1,485.801388873604
"sub-004",8,"Phone","Concrete","Old",1,587.832212185563
"sub-004",9,"Patience","Abstract","Old",1,522.452564908378
"sub-004",10,"Friendship","Abstract","Old",1,427.253958045951
"sub-004",11,"Camera","Concrete","New",1,354.506980581441
"sub-004",12,"Lamp","Concrete","Old",0,406.071346344543
"sub-004",13,"Honesty","Abstract","Old",1,404.255288511313
"sub-004",14,"Love","Abstract","Old",1,843.288170523718
"sub-004",15,"Patience","Concrete","Old",1,852.76494216062
"sub-004",16,"Loyalty","Abstract","Old",1,699.24390242482
"sub-004",17,"Knowledge","Abstract","Old",1,609.11190312049
"sub-004",18,"Determination","Abstract","New",1,201.822763837472
"sub-004",19,"Apple","Abstract","Old",1,555.091228642476
"sub-004",20,"Justice","Abstract","Old",1,169.643339753243
"sub-004",21,"Bridge","Concrete","New",1,526.763702867153
"sub-004",22,"Book","Concrete","New",0,78.6924738343328
"sub-004",23,"Success","Abstract","New",1,663.091193764296
"sub-004",24,"Generosity","Concrete","New",1,525.602800396736
"sub-004",25,"Compassion","Concrete","New",1,486.382628258447
"sub-004",26,"School","Abstract","Old",1,413.285643040786
"sub-004",27,"Humility","Abstract","New",1,1152.34867265944
"sub-004",28,"Friendship","Concrete","Old",1,162.172632272417
"sub-004",29,"Phone","Abstract","Old",1,565.515794805721
"sub-004",30,"Faith","Concrete","Old",1,601.420724005253
"sub-004",31,"Hospital","Concrete","New",1,356.210338987105
"sub-004",32,"Car","Abstract","New",1,921.274853802703
"sub-004",33,"Ambition","Abstract","New",1,510.584353918525
"sub-004",34,"House","Concrete","New",0,459.165099438052
"sub-004",35,"Table","Abstract","New",1,283.629057260346
"sub-004",36,"Determination","Concrete","New",1,723.347371696435
"sub-004",37,"Happiness","Concrete","Old",1,778.866880683369
"sub-004",38,"Integrity","Concrete","New",1,511.238263129923
"sub-004",39,"Faith","Abstract","Old",1,732.748510210133
"sub-004",40,"Integrity","Abstract","New",1,565.084220110807
"sub-004",41,"Beach","Abstract","Old",1,612.22121668724
"sub-004",42,"Book","Abstract","New",1,376.462151287536
"sub-004",43,"Gratitude","Abstract","Old",1,285.69953146731
"sub-004",44,"Chair","Abstract","Old",1,639.726364949724
"sub-004",45,"Loyalty","Concrete","Old",1,445.592991119035
"sub-004",46,"Freedom","Abstract","New",1,466.635549547007
"sub-004",47,"Gratitude","Concrete","Old",1,1009.15436756976
"sub-004",48,"Dog","Abstract","New",1,507.696317450304
"sub-004",49,"Camera","Abstract","New",1,271.662525346801
"sub-004",50,"Humility","Concrete","New",1,531.569989557355
"sub-004",51,"Knowledge","Concrete","Old",1,250.504580125341
"sub-004",52,"Park","Concrete","Old",1,665.541653395572
"sub-004",53,"Dog","Concrete","New",1,538.390815292588
"sub-004",54,"Happiness","Abstract","Old",1,246.711356023623
"sub-004",55,"Tree","Abstract","Old",1,859.654526220256
"sub-004",56,"Freedom","Concrete","New",1,671.749477637908
"sub-004",57,"Road","Concrete","Old",1,411.553817473027
"sub-004",58,"Boat","Abstract","New",1,381.918881742359
"sub-004",59,"Honesty","Concrete","Old",1,703.751791559043
"sub-004",60,"Park","Abstract","Old",1,411.503552082964
"sub-004",61,"Mountain","Abstract","New",1,410.207348890937
"sub-004",62,"Creativity","Abstract","New",1,556.595319325192
"sub-004",63,"Window","Abstract","New",1,553.054731055092
"sub-004",64,"Trust","Abstract","Old",1,526.495228810299
"sub-004",65,"Road","Abstract","Old",1,481.80395060588
"sub-004",66,"Trust","Concrete","Old",1,895.991699174
"sub-004",67,"Courage","Concrete","Old",1,550.639763031558
"sub-004",68,"Respect","Abstract","New",1,923.885054672416
"sub-004",69,"Garden","Concrete","New",1,504.070500672351
"sub-004",70,"Respect","Concrete","New",1,456.847000365947
"sub-004",71,"Lamp","Abstract","Old",1,491.952786951763
"sub-004",72,"Train","Concrete","Old",0,733.230172728306
"sub-004",73,"Success","Concrete","New",1,670.271412136184
"sub-004",74,"Hope","Abstract","New",1,710.1959873682
"sub-004",75,"Wisdom","Concrete","Old",1,717.710344706949
"sub-004",76,"Shoe","Abstract","Old",1,634.367822189602
"sub-004",77,"Ambition","Concrete","New",1,313.962380327701
"sub-004",78,"Justice","Concrete","Old",1,200.155833308173
"sub-004",79,"Shoe","Concrete","Old",1,433.289400668325
"sub-004",80,"Courage","Abstract","Old",1,581.772144621326
"sub-004",81,"Car","Concrete","New",0,715.707751433646
"sub-004",82,"Beach","Concrete","Old",1,256.839403713578
"sub-004",83,"Peace","Concrete","New",1,187.792253462489
"sub-004",84,"Chair","Concrete","Old",1,450.187098990685
"sub-004",85,"River","Abstract","New",1,604.429229419405
"sub-004",86,"Tree","Concrete","Old",1,339.833880845848
"sub-004",87,"Love","Concrete","Old",1,285.481812229374
"sub-004",88,"Hope","Concrete","New",1,590.034548175595
"sub-004",89,"River","Concrete","New",1,351.222120585258
"sub-004",90,"Hospital","Abstract","New",1,316.84898748337
"sub-004",91,"School","Concrete","Old",1,648.829213192116
"sub-004",92,"Computer","Concrete","Old",0,201.021137886732
"sub-004",93,"Garden","Abstract","New",1,499.364475185565
"sub-004",94,"Bridge","Abstract","New",1,402.737967152684
"sub-004",95,"House","Abstract","New",1,441.623156453308
"sub-004",96,"Boat","Concrete","New",1,287.973351376815
"sub-004",97,"Peace","Abstract","New",1,279.749762058963
"sub-004",98,"Creativity","Concrete","New",1,125.450044251395
"sub-004",99,"Train","Abstract","Old",1,577.58485143433
"sub-004",100,"Compassion","Abstract","New",1,809.671701149264
"sub-005",1,"School","Concrete","New",0,428.350012329856
"sub-005",2,"Loyalty","Concrete","Old",1,377.150143963314
"sub-005",3,"River","Concrete","New",1,424.026534500303
"sub-005",4,"Freedom","Concrete","New",1,348.127307689414
"sub-005",5,"Park","Abstract","New",1,65.6076579761084
"sub-005",6,"Wisdom","Abstract","Old",1,279.418818811746
"sub-005",7,"Friendship","Abstract","Old",1,596.71674158869
"sub-005",8,"Book","Abstract","New",1,595.961033363281
"sub-005",9,"Boat","Concrete","Old",1,487.434398024279
"sub-005",10,"Happiness","Abstract","New",1,772.776230897502
"sub-005",11,"Justice","Abstract","Old",1,230.429782538933
"sub-005",12,"Table","Concrete","New",1,462.155718976509
"sub-005",13,"Determination","Abstract","Old",1,701.189114260444
"sub-005",14,"Apple","Concrete","New",0,733.661075749356
"sub-005",15,"Respect","Abstract","New",1,342.914134086546
"sub-005",16,"Hospital","Abstract","Old",0,719.034803654462
"sub-005",17,"Success","Concrete","Old",1,452.612946485229
"sub-005",18,"Integrity","Concrete","Old",1,483.263044792473
"sub-005",19,"Hope","Concrete","New",1,408.636971311439
"sub-005",20,"Honesty","Abstract","Old",1,402.039910771419
"sub-005",21,"Window","Abstract","Old",1,449.080480733017
"sub-005",22,"Happiness","Concrete","New",1,411.916316382615
"sub-005",23,"Ambition","Concrete","Old",1,511.027603807433
"sub-005",24,"School","Abstract","New",0,462.35949811484
"sub-005",25,"Car","Abstract","Old",1,472.028472631359
"sub-005",26,"Friendship","Concrete","Old",1,442.416894465933
"sub-005",27,"Generosity","Abstract","New",1,333.448117789516
"sub-005",28,"Knowledge","Concrete","New",1,115.158936246136
"sub-005",29,"Window","Concrete","Old",1,794.176187645786
"sub-005",30,"Love","Concrete","Old",1,365.534716354506
"sub-005",31,"Lamp","Abstract","New",1,385.564092711719
"sub-005",32,"Book","Concrete","New",1,644.253700374532
"sub-005",33,"Tree","Abstract","New",1,790.818397557467
"sub-005",34,"Shoe","Abstract","Old",1,809.097835350285
"sub-005",35,"Respect","Concrete","New",1,463.500074397296
"sub-005",36,"Freedom","Abstract","New",1,574.766106368923
"sub-005",37,"Ambition","Abstract","Old",1,626.996020678271
"sub-005",38,"Love","Abstract","Old",1,675.217120102441
"sub-005",39,"Integrity","Abstract","Old",1,550.291489094056
"sub-005",40,"Creativity","Abstract","Old",1,539.029586953042
"sub-005",41,"Camera","Abstract","New",1,474.855119705196
"sub-005",42,"Park","Concrete","New",1,658.868942797789
"sub-005",43,"Mountain","Abstract","Old",1,833.261721769501
"sub-005",44,"Courage","Concrete","Old",1,258.176413966492
"sub-005",45,"Courage","Abstract","Old",1,510.350579006207
"sub-005",46,"Trust","Abstract","New",1,640.974201887949
"sub-005",47,"Faith","Abstract","New",1,857.981482730646
"sub-005",48,"Beach","Concrete","New",1,373.157307869539
"sub-005",49,"Compassion","Abstract","New",1,695.410778188776
"sub-005",50,"Train","Abstract","New",0,298.920815238939
"sub-005",51,"Car","Concrete","Old",1,389.711520970659
"sub-005",52,"Wisdom","Concrete","Old",1,-152.637706484166
"sub-005",53,"Chair","Concrete","Old",0,334.233955311811
"sub-005",54,"Dog","Abstract","New",1,416.297709612307
"sub-005",55,"Loyalty","Abstract","Old",1,636.401511834076
"sub-005",56,"Garden","Concrete","New",0,405.730974383269
"sub-005",57,"Humility","Concrete","New",1,309.201309073968
"sub-005",58,"Apple","Abstract","New",0,803.377602220225
"sub-005",59,"Road","Abstract","Old",1,308.215729807779
"sub-005",60,"Peace","Abstract","Old",1,406.676672754946
"sub-005",61,"Camera","Concrete","New",0,437.747024381209
"sub-005",62,"Success","Abstract","Old",1,669.077561184923
"sub-005",63,"Generosity","Concrete","New",1,461.41905781578
"sub-005",64,"Knowledge","Abstract","New",1,608.379180721397
"sub-005",65,"Tree","Concrete","New",1,911.237872352359
"sub-005",66,"Computer","Abstract","New",1,868.465157590406
"sub-005",67,"Gratitude","Abstract","New",1,540.092609605728
"sub-005",68,"Humility","Abstract","New",1,899.478778964137
"sub-005",69,"Peace","Concrete","Old",1,652.812683029083
"sub-005",70,"House","Concrete","Old",0,716.306502656181
"sub-005",71,"Faith","Concrete","New",1,644.380801948468
"sub-005",72,"Phone","Concrete","Old",0,572.431407369407
"sub-005",73,"Determination","Concrete","Old",1,664.289082881749
"sub-005",74,"Patience","Concrete","Old",1,513.361242585127
"sub-005",75,"Boat","Abstract","Old",1,367.596386952648
"sub-005",76,"Computer","Concrete","New",1,927.0875812947
"sub-005",77,"Shoe","Concrete","Old",1,687.618365562271
"sub-005",78,"Phone","Abstract","Old",1,320.293277982702
"sub-005",79,"Hope","Abstract","New",1,466.854222113181
"sub-005",80,"Lamp","Concrete","New",1,428.938214805862
"sub-005",81,"Garden","Abstract","New",0,637.900708562747
"sub-005",82,"Compassion","Concrete","New",1,234.87625936723
"sub-005",83,"House","Abstract","Old",0,697.102441675255
"sub-005",84,"Gratitude","Concrete","New",1,414.883850811405
"sub-005",85,"Creativity","Concrete","Old",1,248.336443223878
"sub-005",86,"Bridge","Concrete","Old",1,293.784848950737
"sub-005",87,"Hospital","Concrete","Old",0,130.047865020922
"sub-005",88,"Beach","Abstract","New",1,280.474076419127
"sub-005",89,"Chair","Abstract","Old",1,423.140521068268
"sub-005",90,"Dog","Concrete","New",1,589.322515155751
"sub-005",91,"River","Abstract","New",1,516.923103714395
"sub-005",92,"Train","Concrete","New",0,285.650525996053
"sub-005",93,"Mountain","Concrete","Old",0,904.756729200738
"sub-005",94,"Table","Abstract","New",1,459.740562914017
"sub-005",95,"Trust","Concrete","New",1,245.561334795549
"sub-005",96,"Justice","Concrete","Old",1,402.13546862433
"sub-005",97,"Road","Concrete","Old",1,739.224506794214
"sub-005",98,"Honesty","Concrete","Old",1,642.581263577276
"sub-005",99,"Patience","Abstract","Old",1,361.175106138115
"sub-005",100,"Bridge","Abstract","Old",1,425.166135978786
"sub-006",1,"Lamp","Concrete","Old",1,787.239012610703
"sub-006",2,"Freedom","Abstract","Old",1,798.635489074258
"sub-006",3,"Park","Concrete","New",1,432.014436476195
"sub-006",4,"Bridge","Abstract","New",1,298.079142728253
"sub-006",5,"Hospital","Abstract","Old",1,693.461622313399
"sub-006",6,"Creativity","Concrete","Old",1,376.064025202144
"sub-006",7,"Love","Abstract","New",1,959.766127002095
"sub-006",8,"Humility","Abstract","New",1,617.890837761888
"sub-006",9,"Peace","Concrete","New",1,243.19118374634
"sub-006",10,"Garden","Concrete","Old",0,216.535192104185
"sub-006",11,"Faith","Abstract","New",1,720.708030922362
"sub-006",12,"Tree","Concrete","New",1,459.350135440958
"sub-006",13,"Train","Concrete","New",1,471.519291516873
"sub-006",14,"Determination","Concrete","New",1,718.990912332282
"sub-006",15,"Camera","Abstract","Old",1,353.114466562987
"sub-006",16,"Boat","Abstract","New",1,326.039166196446
"sub-006",17,"Freedom","Concrete","Old",1,335.604085931634
"sub-006",18,"Road","Abstract","New",1,137.192202956178
"sub-006",19,"Integrity","Abstract","Old",1,617.185025704862
"sub-006",20,"Hope","Concrete","Old",1,870.875311618892
"sub-006",21,"Respect","Abstract","Old",1,514.755102982037
"sub-006",22,"Book","Concrete","New",0,259.130496013636
"sub-006",23,"House","Abstract","Old",1,478.376995935856
"sub-006",24,"Phone","Abstract","New",1,242.898944417837
"sub-006",25,"Honesty","Concrete","New",1,465.290862978746
"sub-006",26,"Mountain","Concrete","New",1,371.287622772197
"sub-006",27,"Beach","Concrete","Old",0,555.50024293439
"sub-006",28,"Knowledge","Abstract","Old",1,600.095618446778
"sub-006",29,"Compassion","Abstract","Old",1,600.251980526772
"sub-006",30,"Peace","Abstract","New",1,420.500670952706
"sub-006",31,"Apple","Abstract","New",1,410.275106143195
"sub-006",32,"Hospital","Concrete","Old",0,346.553893774815
"sub-006",33,"Car","Concrete","New",1,66.0883598660528
"sub-006",34,"Integrity","Concrete","Old",1,577.267852284169
"sub-006",35,"Friendship","Concrete","New",1,585.2083955538
"sub-006",36,"Apple","Concrete","New",0,437.65268114796
"sub-006",37,"Window","Concrete","Old",0,706.976003444546
"sub-006",38,"Happiness","Abstract","New",1,476.404789671909
"sub-006",39,"Respect","Concrete","Old",1,890.848692877368
"sub-006",40,"Loyalty","Abstract","New",1,377.074212624359
"sub-006",41,"Garden","Abstract","Old",0,719.329073244534
"sub-006",42,"Computer","Abstract","New",0,408.18636957344
"sub-006",43,"Trust","Abstract","Old",1,689.816867192817
"sub-006",44,"House","Concrete","Old",0,613.311517194579
"sub-006",45,"Car","Abstract","New",1,247.513869085949
"sub-006",46,"Tree","Abstract","New",1,301.548640378155
"sub-006",47,"Shoe","Abstract","Old",1,478.86010209996
"sub-006",48,"Determination","Abstract","New",1,475.45802788472
"sub-006",49,"Justice","Abstract","Old",1,438.151062626908
"sub-006",50,"Friendship","Abstract","New",1,866.905109928252
"sub-006",51,"Courage","Concrete","Old",1,397.769146254934
"sub-006",52,"Creativity","Abstract","Old",1,427.576875841018
"sub-006",53,"Book","Abstract","New",1,720.707442915007
"sub-006",54,"School","Concrete","Old",1,585.178884071618
"sub-006",55,"Generosity","Concrete","New",1,840.964169093219
"sub-006",56,"Chair","Concrete","Old",0,548.708296190525
"sub-006",57,"Wisdom","Abstract","Old",1,749.809824103491
"sub-006",58,"Generosity","Abstract","New",1,601.898193141226
"sub-006",59,"Success","Concrete","New",1,823.955813646805
"sub-006",60,"Love","Concrete","New",1,448.046617311112
"sub-006",61,"Train","Abstract","New",1,805.964625500476
"sub-006",62,"Patience","Concrete","Old",1,495.377126990185
"sub-006",63,"Window","Abstract","Old",1,331.99894461442
"sub-006",64,"Boat","Concrete","New",0,481.130837678511
"sub-006",65,"Faith","Concrete","New",1,283.904043669446
"sub-006",66,"Courage","Abstract","Old",1,306.133299834985
"sub-006",67,"Wisdom","Concrete","Old",1,533.766188673839
"sub-006",68,"Hope","Abstract","Old",1,566.73469254965
"sub-006",69,"Dog","Abstract","New",1,323.076421731433
"sub-006",70,"Loyalty","Concrete","New",1,-63.5741561483293
"sub-006",71,"Patience","Abstract","Old",1,538.043152276499
"sub-006",72,"School","Abstract","Old",1,331.144539400487
"sub-006",73,"Table","Abstract","Old",1,520.451142476313
"sub-006",74,"Dog","Concrete","New",1,373.163573550137
"sub-006",75,"Honesty","Abstract","New",1,783.463818379067
"sub-006",76,"Computer","Concrete","New",0,545.424898322579
"sub-006",77,"Success","Abstract","New",1,673.362266300488
"sub-006",78,"Trust","Concrete","Old",1,410.930664236858
"sub-006",79,"Mountain","Abstract","New",1,574.697270663719
"sub-006",80,"Justice","Concrete","Old",1,518.615581602193
"sub-006",81,"Ambition","Concrete","Old",1,254.222185283871
"sub-006",82,"Park","Abstract","New",1,508.33930252322
"sub-006",83,"Beach","Abstract","Old",0,710.684480100888
"sub-006",84,"Ambition","Abstract","Old",1,468.773717431546
"sub-006",85,"Road","Concrete","New",0,449.956641942675
"sub-006",86,"Chair","Abstract","Old",1,767.743807377444
"sub-006",87,"Happiness","Concrete","New",1,420.273606385882
"sub-006",88,"Humility","Concrete","New",1,519.478583845068
"sub-006",89,"Knowledge","Concrete","Old",1,241.806763367306
"sub-006",90,"Gratitude","Abstract","New",1,671.529961590357
"sub-006",91,"Gratitude","Concrete","New",1,819.60449933896
"sub-006",92,"Camera","Concrete","Old",1,591.413601831319
"sub-006",93,"Lamp","Abstract","Old",1,778.828937727769
"sub-006",94,"Bridge","Concrete","New",0,176.969454306567
"sub-006",95,"Shoe","Concrete","Old",1,494.382457386745
"sub-006",96,"Phone","Concrete","New",1,434.406227710464
"sub-006",97,"River","Concrete","Old",1,577.970970931564
"sub-006",98,"River","Abstract","Old",1,578.459271626452
"sub-006",99,"Table","Concrete","Old",0,344.186415409929
"sub-006",100,"Compassion","Concrete","Old",1,134.926137168184
"sub-007",1,"Love","Abstract","New",1,680.261771317213
"sub-007",2,"Table","Concrete","New",0,773.602860685824
"sub-007",3,"Tree","Concrete","Old",0,391.436435409524
"sub-007",4,"Park","Concrete","New",1,200.958065430827
"sub-007",5,"Loyalty","Concrete","New",1,535.462077356149
"sub-007",6,"School","Abstract","Old",1,398.36710634815
"sub-007",7,"Honesty","Concrete","New",1,266.556477697824
"sub-007",8,"House","Concrete","Old",0,139.761408156105
"sub-007",9,"Beach","Concrete","New",0,521.846416070906
"sub-007",10,"Compassion","Abstract","Old",1,388.805758050783
"sub-007",11,"Success","Concrete","Old",1,606.705186617428
"sub-007",12,"Road","Concrete","New",1,447.735488126211
"sub-007",13,"Car","Abstract","Old",1,290.552748342783
"sub-007",14,"Justice","Concrete","New",1,696.6454849701
"sub-007",15,"Garden","Concrete","New",0,473.601651191361
"sub-007",16,"Knowledge","Abstract","Old",1,801.274538769227
"sub-007",17,"River","Abstract","New",1,625.094381255755
"sub-007",18,"Train","Concrete","New",1,327.489575614483
"sub-007",19,"Beach","Abstract","New",1,242.11771711003
"sub-007",20,"Tree","Abstract","Old",1,454.464882547177
"sub-007",21,"Computer","Concrete","New",0,685.529865306101
"sub-007",22,"Dog","Abstract","New",1,663.567652317691
"sub-007",23,"Peace","Concrete","Old",1,689.792178958722
"sub-007",24,"Friendship","Abstract","Old",1,563.492653230204
"sub-007",25,"Dog","Concrete","New",1,379.780413920152
"sub-007",26,"Boat","Abstract","Old",1,632.631971773666
"sub-007",27,"Hope","Concrete","Old",1,387.328230761048
"sub-007",28,"Freedom","Abstract","New",1,318.533163759345
"sub-007",29,"Humility","Concrete","New",1,580.260462206184
"sub-007",30,"Trust","Concrete","Old",1,510.201142639826
"sub-007",31,"Apple","Concrete","Old",0,343.389545268802
"sub-007",32,"Shoe","Abstract","New",1,450.713066371192
"sub-007",33,"Hope","Abstract","Old",1,620.188880441909
"sub-007",34,"Respect","Concrete","New",1,482.836911283069
"sub-007",35,"Peace","Abstract","Old",1,262.284423359466
"sub-007",36,"Justice","Abstract","New",1,213.448016487339
"sub-007",37,"Courage","Concrete","New",1,681.05547370827
"sub-007",38,"Creativity","Abstract","Old",1,628.560056868244
"sub-007",39,"Camera","Abstract","New",1,492.909030333579
"sub-007",40,"Window","Abstract","Old",0,159.799498638026
"sub-007",41,"Faith","Concrete","Old",1,269.560050002502
"sub-007",42,"Integrity","Abstract","Old",1,695.337502731822
"sub-007",43,"Chair","Concrete","New",1,195.44917017946
"sub-007",44,"Phone","Concrete","Old",1,556.756661340991
"sub-007",45,"Wisdom","Abstract","New",1,34.768983079447
"sub-007",46,"Car","Concrete","Old",1,541.672225788227
"sub-007",47,"Love","Concrete","New",1,450.822860977222
"sub-007",48,"Honesty","Abstract","New",1,359.121837875202
"sub-007",49,"Creativity","Concrete","Old",1,269.758127843002
"sub-007",50,"Ambition","Concrete","New",1,502.69409427141
"sub-007",51,"Book","Abstract","Old",1,580.211489637337
"sub-007",52,"Table","Abstract","New",1,589.752442330594
"sub-007",53,"River","Concrete","New",1,164.136018897087
"sub-007",54,"Bridge","Concrete","Old",0,648.141992946126
"sub-007",55,"Chair","Abstract","New",1,822.950512931654
"sub-007",56,"Park","Abstract","New",1,470.338817818441
"sub-007",57,"Freedom","Concrete","New",1,292.109938348529
"sub-007",58,"Happiness","Concrete","New",1,586.179048022157
"sub-007",59,"Hospital","Concrete","Old",0,721.252684519579
"sub-007",60,"Garden","Abstract","New",0,511.806620831277
"sub-007",61,"Train","Abstract","New",1,698.67735054196
"sub-007",62,"Trust","Abstract","Old",1,590.355568394759
"sub-007",63,"Patience","Concrete","Old",1,343.496938197368
"sub-007",64,"Friendship","Concrete","Old",1,581.347319917774
"sub-007",65,"Boat","Concrete","Old",1,214.957910717801
"sub-007",66,"Mountain","Abstract","New",1,641.610204545775
"sub-007",67,"Book","Concrete","Old",0,376.969296540398
"sub-007",68,"Shoe","Concrete","New",0,260.848643802
"sub-007",69,"Hospital","Abstract","Old",0,201.602120215495
"sub-007",70,"Generosity","Abstract","Old",1,385.309973362208
"sub-007",71,"Determination","Abstract","Old",1,562.543967466425
"sub-007",72,"Patience","Abstract","Old",1,349.925175386248
"sub-007",73,"Knowledge","Concrete","Old",1,639.623082858047
"sub-007",74,"Mountain","Concrete","New",1,603.781141302355
"sub-007",75,"House","Abstract","Old",1,806.820833137535
"sub-007",76,"Humility","Abstract","New",1,790.464348843405
"sub-007",77,"Respect","Abstract","New",1,628.838805473653
"sub-007",78,"Courage","Abstract","New",1,434.766996040854
"sub-007",79,"Road","Abstract","New",1,102.569295909917
"sub-007",80,"Lamp","Abstract","New",1,877.084854504168
"sub-007",81,"Gratitude","Abstract","Old",1,178.252731014741
"sub-007",82,"Phone","Abstract","Old",1,711.968451178203
"sub-007",83,"Bridge","Abstract","Old",1,542.746300192084
"sub-007",84,"School","Concrete","Old",1,417.742315075766
"sub-007",85,"Happiness","Abstract","New",1,887.574823381718
"sub-007",86,"Faith","Abstract","Old",1,552.943798186856
"sub-007",87,"Camera","Concrete","New",0,726.966173410489
"sub-007",88,"Success","Abstract","Old",1,744.286650918121
"sub-007",89,"Determination","Concrete","Old",1,391.911458716048
"sub-007",90,"Loyalty","Abstract","New",1,628.3300628149
"sub-007",91,"Ambition","Abstract","New",1,524.522449143504
"sub-007",92,"Generosity","Concrete","Old",1,445.886677763837
"sub-007",93,"Computer","Abstract","New",0,556.508319452326
"sub-007",94,"Lamp","Concrete","New",0,632.931569264798
"sub-007",95,"Apple","Abstract","Old",1,532.02568810159
"sub-007",96,"Gratitude","Concrete","Old",1,899.938302245401
"sub-007",97,"Integrity","Concrete","Old",1,219.290091036472
"sub-007",98,"Compassion","Concrete","Old",1,552.566089182502
"sub-007",99,"Window","Concrete","Old",0,731.406320204153
"sub-007",100,"Wisdom","Concrete","New",1,935.91180966915
"sub-008",1,"Garden","Concrete","Old",1,249.707446792896
"sub-008",2,"Friendship","Concrete","Old",1,320.37978727548
"sub-008",3,"Creativity","Concrete","New",1,623.801696701642
"sub-008",4,"Justice","Abstract","Old",1,484.621291114658
"sub-008",5,"Integrity","Abstract","Old",1,719.894749053965
"sub-008",6,"Window","Concrete","New",0,454.665248979598
"sub-008",7,"Patience","Concrete","Old",1,722.953816291976
"sub-008",8,"Knowledge","Abstract","New",1,808.853288853074
"sub-008",9,"Dog","Concrete","New",0,572.286751308213
"sub-008",10,"Freedom","Abstract","Old",1,685.241960702459
"sub-008",11,"River","Abstract","Old",1,472.83161548299
"sub-008",12,"Honesty","Abstract","Old",1,583.636162716246
"sub-008",13,"Chair","Abstract","New",1,313.658330765506
"sub-008",14,"Lamp","Abstract","New",1,715.132169502107
"sub-008",15,"Train","Abstract","New",1,694.823705277833
"sub-008",16,"Camera","Abstract","New",1,783.708136978445
"sub-008",17,"Happiness","Abstract","New",1,457.644013837955
"sub-008",18,"Generosity","Concrete","New",1,773.399602656783
"sub-008",19,"Table","Concrete","Old",1,620.290210138097
"sub-008",20,"House","Concrete","Old",1,776.635695785938
"sub-008",21,"Humility","Concrete","New",1,604.497080834477
"sub-008",22,"Train","Concrete","New",0,707.995812619096
"sub-008",23,"Love","Abstract","Old",1,857.915108468346
"sub-008",24,"Friendship","Abstract","Old",1,961.608776704254
"sub-008",25,"Honesty","Concrete","Old",1,401.760012014609
"sub-008",26,"Compassion","Abstract","New",1,413.983935423158
"sub-008",27,"Book","Concrete","Old",0,1097.80668115741
"sub-008",28,"School","Concrete","New",1,610.134514238395
"sub-008",29,"Car","Abstract","New",1,821.50848340683
"sub-008",30,"Computer","Abstract","Old",0,529.996836430051
"sub-008",31,"Shoe","Abstract","Old",1,563.275618388959
"sub-008",32,"Freedom","Concrete","Old",1,137.364905004923
"sub-008",33,"Camera","Concrete","New",1,496.418787114654
"sub-008",34,"Integrity","Concrete","Old",1,546.426257714414
"sub-008",35,"Peace","Abstract","Old",1,911.561158292253
"sub-008",36,"Faith","Concrete","Old",1,886.039656307289
"sub-008",37,"Phone","Abstract","New",1,231.67619152254
"sub-008",38,"Bridge","Abstract","New",1,765.673684198034
"sub-008",39,"Car","Concrete","New",0,364.954550341182
"sub-008",40,"Hope","Concrete","New",1,101.212307510644
"sub-008",41,"Courage","Abstract","Old",1,851.207701541892
"sub-008",42,"Love","Concrete","Old",1,400.555968503548
"sub-008",43,"Wisdom","Abstract","Old",1,240.62790829259
"sub-008",44,"Park","Concrete","Old",1,-23.6796303849474
"sub-008",45,"Dog","Abstract","New",1,835.484561432995
"sub-008",46,"Beach","Abstract","New",1,800.231498950808
"sub-008",47,"Mountain","Abstract","Old",1,503.74207920909
"sub-008",48,"Bridge","Concrete","New",0,394.101297493305
"sub-008",49,"Happiness","Concrete","New",1,481.743232064244
"sub-008",50,"Boat","Concrete","New",1,580.609097641452
"sub-008",51,"Generosity","Abstract","New",1,451.685981069841
"sub-008",52,"Lamp","Concrete","New",1,531.316781156378
"sub-008",53,"Park","Abstract","Old",1,369.229446798405
"sub-008",54,"Apple","Abstract","New",0,523.316139882446
"sub-008",55,"Beach","Concrete","New",1,347.044246103323
"sub-008",56,"House","Abstract","Old",1,331.35348499398
"sub-008",57,"Trust","Abstract","Old",1,315.266387891082
"sub-008",58,"Window","Abstract","New",1,348.807958545882
"sub-008",59,"Apple","Concrete","New",0,524.737393902846
"sub-008",60,"Shoe","Concrete","Old",1,46.4263491197023
"sub-008",61,"Creativity","Abstract","New",1,517.138401981842
"sub-008",62,"Chair","Concrete","New",0,379.609002035912
"sub-008",63,"Courage","Concrete","Old",1,299.704471675985
"sub-008",64,"Respect","Abstract","New",1,450.968995138882
"sub-008",65,"Mountain","Concrete","Old",0,405.818530120007
"sub-008",66,"Humility","Abstract","New",1,902.510029044793
"sub-008",67,"Road","Concrete","Old",1,340.810288238158
"sub-008",68,"Computer","Concrete","Old",0,569.3925456497
"sub-008",69,"Compassion","Concrete","New",1,454.72560767581
"sub-008",70,"Road","Abstract","Old",1,774.037462396734
"sub-008",71,"Phone","Concrete","New",1,912.158380247111
"sub-008",72,"School","Abstract","New",1,404.123447088035
"sub-008",73,"Gratitude","Abstract","New",1,602.361058177155
"sub-008",74,"Hospital","Concrete","Old",0,261.637165031913
"sub-008",75,"Table","Abstract","Old",1,702.98491692536
"sub-008",76,"Knowledge","Concrete","New",1,292.226409306204
"sub-008",77,"Loyalty","Concrete","Old",1,514.350225672439
"sub-008",78,"Peace","Concrete","Old",1,335.767583212557
"sub-008",79,"Success","Concrete","New",1,822.923972041208
"sub-008",80,"Boat","Abstract","New",1,624.89519183364
"sub-008",81,"River","Concrete","Old",1,102.080220928909
"sub-008",82,"Patience","Abstract","Old",1,750.404355190429
"sub-008",83,"Tree","Abstract","New",1,555.037980277603
"sub-008",84,"Ambition","Abstract","Old",1,206.390430483629
"sub-008",85,"Garden","Abstract","Old",1,429.040589712821
"sub-008",86,"Determination","Abstract","New",1,483.761556910454
"sub-008",87,"Justice","Concrete","Old",1,805.831923646896
"sub-008",88,"Determination","Concrete","New",1,335.331782540517
"sub-008",89,"Gratitude","Concrete","New",1,474.387343338121
"sub-008",90,"Hospital","Abstract","Old",1,186.445193706293
"sub-008",91,"Book","Abstract","Old",1,449.183928258234
"sub-008",92,"Hope","Abstract","New",1,447.45337803339
"sub-008",93,"Trust","Concrete","Old",1,662.915817552828
"sub-008",94,"Wisdom","Concrete","Old",1,80.7438663217989
"sub-008",95,"Tree","Concrete","New",1,948.250788785828
"sub-008",96,"Loyalty","Abstract","Old",1,708.131390985968
"sub-008",97,"Ambition","Concrete","Old",1,704.384979080318
"sub-008",98,"Success","Abstract","New",1,769.70115566714
"sub-008",99,"Faith","Abstract","Old",1,743.60617107751
"sub-008",100,"Respect","Concrete","New",1,880.583139272278
"sub-009",1,"Knowledge","Abstract","New",1,541.105618433179
"sub-009",2,"Road","Abstract","New",1,497.249347957394
"sub-009",3,"Bridge","Abstract","Old",1,381.715046682742
"sub-009",4,"Gratitude","Abstract","New",1,449.204661209078
"sub-009",5,"Camera","Abstract","Old",1,429.413432323808
"sub-009",6,"Hospital","Abstract","Old",1,288.505938895617
"sub-009",7,"Determination","Concrete","Old",1,783.836909790274
"sub-009",8,"Humility","Abstract","New",1,428.281691881073
"sub-009",9,"Road","Concrete","New",0,432.395868947127
"sub-009",10,"Garden","Concrete","Old",1,747.340272545563
"sub-009",11,"Gratitude","Concrete","New",1,432.62578973721
"sub-009",12,"Justice","Abstract","New",1,733.765526822867
"sub-009",13,"Loyalty","Abstract","New",1,547.265590249052
"sub-009",14,"Justice","Concrete","New",1,621.577880405477
"sub-009",15,"Book","Concrete","Old",1,468.45242754527
"sub-009",16,"Phone","Abstract","New",1,671.505665723741
"sub-009",17,"Dog","Abstract","Old",1,844.419159105128
"sub-009",18,"Happiness","Abstract","New",1,24.3910815300749
"sub-009",19,"Beach","Abstract","New",1,232.633436267968
"sub-009",20,"Window","Concrete","New",0,446.383860352981
"sub-009",21,"Compassion","Concrete","New",1,407.221689013049
"sub-009",22,"Love","Abstract","New",1,316.694737553111
"sub-009",23,"Determination","Abstract","Old",1,843.137633740487
"sub-009",24,"Tree","Concrete","Old",1,480.016277225437
"sub-009",25,"School","Concrete","New",1,594.425694677842
"sub-009",26,"Generosity","Abstract","New",1,659.478299283489
"sub-009",27,"Park","Concrete","Old",1,615.013923336447
"sub-009",28,"Happiness","Concrete","New",1,-114.460642731077
"sub-009",29,"Mountain","Abstract","Old",1,291.789810412449
"sub-009",30,"Freedom","Concrete","New",1,445.647766779165
"sub-009",31,"Wisdom","Concrete","Old",1,175.1965775208
"sub-009",32,"House","Concrete","New",1,302.274699916723
"sub-009",33,"Compassion","Abstract","New",1,353.271964563523
"sub-009",34,"Peace","Concrete","Old",1,118.767097184348
"sub-009",35,"Faith","Concrete","New",1,419.058337130735
"sub-009",36,"Phone","Concrete","New",0,989.870357579882
"sub-009",37,"Computer","Abstract","Old",1,513.101761031925
"sub-009",38,"Dog","Concrete","Old",1,707.045967381484
"sub-009",39,"Tree","Abstract","Old",1,968.511863220844
"sub-009",40,"Window","Abstract","New",1,777.148671170075
"sub-009",41,"Mountain","Concrete","Old",1,410.073698331722
"sub-009",42,"Integrity","Concrete","New",1,316.180892082797
"sub-009",43,"Trust","Concrete","Old",1,309.795246196632
"sub-009",44,"Courage","Concrete","New",1,499.894030489154
"sub-009",45,"River","Abstract","Old",1,908.569579213847
"sub-009",46,"Park","Abstract","Old",1,499.930787037018
"sub-009",47,"Shoe","Abstract","Old",1,893.619023392647
"sub-009",48,"Train","Concrete","Old",0,675.84869735934
"sub-009",49,"Shoe","Concrete","Old",0,417.022533908115
"sub-009",50,"Success","Concrete","Old",1,348.140706432083
"sub-009",51,"Computer","Concrete","Old",1,317.517938875147
"sub-009",52,"Lamp","Abstract","New",1,997.598223139023
"sub-009",53,"Ambition","Abstract","Old",1,714.946787143918
"sub-009",54,"Table","Abstract","New",1,443.194402389098
"sub-009",55,"Humility","Concrete","New",1,739.757179032383
"sub-009",56,"Chair","Concrete","New",1,635.966389054912
"sub-009",57,"Train","Abstract","Old",1,778.35971078182
"sub-009",58,"Peace","Abstract","Old",1,599.281492134425
"sub-009",59,"Patience","Abstract","Old",1,550.694955068127
"sub-009",60,"Loyalty","Concrete","New",1,398.890236945913
"sub-009",61,"Love","Concrete","New",1,1026.78458360558
"sub-009",62,"Hope","Concrete","Old",1,356.337013695286
"sub-009",63,"Car","Concrete","Old",0,194.439311350819
"sub-009",64,"Success","Abstract","Old",1,809.589275298611
"sub-009",65,"Table","Concrete","New",0,405.124558178385
"sub-009",66,"Honesty","Abstract","New",1,635.675096105099
"sub-009",67,"Honesty","Concrete","New",1,192.906517522971
"sub-009",68,"Boat","Abstract","New",0,423.595220559479
"sub-009",69,"Integrity","Abstract","New",1,681.836094191238
"sub-009",70,"Apple","Concrete","Old",1,259.713499582933
"sub-009",71,"Lamp","Concrete","New",1,457.270180065819
"sub-009",72,"Respect","Abstract","Old",1,474.056412865192
"sub-009",73,"Creativity","Abstract","Old",1,502.99142711613
"sub-009",74,"Bridge","Concrete","Old",0,390.400380209875
"sub-009",75,"Freedom","Abstract","New",1,518.194648684242
"sub-009",76,"Garden","Abstract","Old",1,550.858554713547
"sub-009",77,"Faith","Abstract","New",1,476.756648500509
"sub-009",78,"Hope","Abstract","Old",1,363.238951457205
"sub-009",79,"Book","Abstract","Old",1,318.177174088758
"sub-009",80,"Friendship","Abstract","New",1,365.221532693399
"sub-009",81,"House","Abstract","New",1,566.236898379816
"sub-009",82,"Friendship","Concrete","New",1,474.202046497844
"sub-009",83,"Camera","Concrete","Old",1,430.164881207449
"sub-009",84,"Knowledge","Concrete","New",1,193.234210634675
"sub-009",85,"Respect","Concrete","Old",1,969.006668359222
"sub-009",86,"Creativity","Concrete","Old",1,545.649347117448
"sub-009",87,"Boat","Concrete","New",0,771.874491222695
"sub-009",88,"Wisdom","Abstract","Old",1,429.042878238568
"sub-009",89,"School","Abstract","New",1,186.119880869116
"sub-009",90,"Car","Abstract","Old",1,505.692394073577
"sub-009",91,"Generosity","Concrete","New",1,887.843652991148
"sub-009",92,"River","Concrete","Old",1,749.133461485028
"sub-009",93,"Beach","Concrete","New",0,519.034777966909
"sub-009",94,"Trust","Abstract","Old",1,510.848084838564
"sub-009",95,"Patience","Concrete","Old",1,600.201987364532
"sub-009",96,"Ambition","Concrete","Old",1,500.416137297397
"sub-009",97,"Hospital","Concrete","Old",0,210.816356584724
"sub-009",98,"Courage","Abstract","New",1,880.516815353398
"sub-009",99,"Apple","Abstract","Old",1,432.27589987648
"sub-009",100,"Chair","Abstract","New",1,596.649404295298
"sub-010",1,"Courage","Abstract","Old",1,878.288274803716
"sub-010",2,"Peace","Abstract","New",1,535.300178444212
"sub-010",3,"Integrity","Concrete","Old",1,506.543987853691
"sub-010",4,"Ambition","Abstract","Old",1,342.279302516312
"sub-010",5,"Loyalty","Abstract","Old",1,823.672069148906
"sub-010",6,"Window","Concrete","New",1,761.520122681869
"sub-010",7,"Bridge","Abstract","Old",1,622.155783757603
"sub-010",8,"Success","Abstract","New",1,648.50551479221
"sub-010",9,"Apple","Abstract","New",1,808.01789936855
"sub-010",10,"Trust","Concrete","New",1,655.52369543272
"sub-010",11,"Chair","Concrete","New",1,425.575013712148
"sub-010",12,"Phone","Concrete","New",0,712.338886593132
"sub-010",13,"Chair","Abstract","New",1,369.521270788055
"sub-010",14,"Humility","Abstract","Old",1,418.342638169883
"sub-010",15,"Window","Abstract","New",1,752.532429433193
"sub-010",16,"Hospital","Concrete","Old",0,376.371591474475
"sub-010",17,"River","Concrete","New",1,398.663807539634
"sub-010",18,"Freedom","Concrete","Old",1,289.167113105335
"sub-010",19,"Shoe","Concrete","Old",1,268.687898339727
"sub-010",20,"Success","Concrete","New",1,657.10222575243
"sub-010",21,"School","Concrete","Old",1,823.975754214949
"sub-010",22,"Garden","Concrete","Old",1,600.273475180489
"sub-010",23,"Park","Abstract","New",0,651.783172370643
"sub-010",24,"Justice","Concrete","New",1,597.64843130103
"sub-010",25,"Boat","Concrete","New",1,671.798389119131
"sub-010",26,"Freedom","Abstract","Old",1,522.383115384132
"sub-010",27,"Road","Abstract","New",0,853.113716775385
"sub-010",28,"Integrity","Abstract","Old",1,750.427903084962
"sub-010",29,"Computer","Concrete","Old",1,453.988235489776
"sub-010",30,"Creativity","Abstract","Old",1,485.879734432227
"sub-010",31,"Wisdom","Abstract","Old",1,597.35512649513
"sub-010",32,"Generosity","Abstract","New",1,639.889691203357
"sub-010",33,"Justice","Abstract","New",1,274.279639801595
"sub-010",34,"Gratitude","Concrete","Old",1,785.764654611251
"sub-010",35,"Dog","Abstract","Old",1,350.172381234588
"sub-010",36,"Knowledge","Abstract","Old",1,523.158254172144
"sub-010",37,"Lamp","Abstract","New",1,387.072251455656
"sub-010",38,"Respect","Concrete","New",1,500.238063263153
"sub-010",39,"Table","Abstract","Old",1,420.355763818424
"sub-010",40,"Friendship","Concrete","New",1,669.981696581378
"sub-010",41,"Lamp","Concrete","New",1,576.211756892267
"sub-010",42,"Compassion","Abstract","Old",1,802.203987046403
"sub-010",43,"River","Abstract","New",1,751.849431086445
"sub-010",44,"Apple","Concrete","New",1,502.33616614063
"sub-010",45,"Honesty","Concrete","New",1,625.202534864451
"sub-010",46,"Courage","Concrete","Old",1,476.674178494275
"sub-010",47,"Mountain","Abstract","Old",1,128.159925810233
"sub-010",48,"Happiness","Abstract","New",1,508.156772628546
"sub-010",49,"Friendship","Abstract","New",1,552.746041604691
"sub-010",50,"Garden","Abstract","Old",1,891.83609705412
"sub-010",51,"Knowledge","Concrete","Old",1,601.814274225109
"sub-010",52,"Ambition","Concrete","Old",1,511.904782087032
"sub-010",53,"Road","Concrete","New",0,810.998517061489
"sub-010",54,"Determination","Concrete","New",1,481.922154184273
"sub-010",55,"Camera","Concrete","New",0,497.644946922335
"sub-010",56,"House","Concrete","Old",0,672.897434297878
"sub-010",57,"Determination","Abstract","New",1,408.10226654684
"sub-010",58,"Computer","Abstract","Old",1,978.102279922651
"sub-010",59,"Trust","Abstract","New",1,506.054300217651
"sub-010",60,"Creativity","Concrete","Old",1,429.738407634012
"sub-010",61,"Table","Concrete","Old",1,243.951528456126
"sub-010",62,"Honesty","Abstract","New",1,717.460349905389
"sub-010",63,"Dog","Concrete","Old",1,212.893791861981
"sub-010",64,"Peace","Concrete","New",1,834.106885852323
"sub-010",65,"Patience","Abstract","New",1,559.22849003374
"sub-010",66,"Book","Concrete","New",0,324.787006051084
"sub-010",67,"School","Abstract","Old",1,460.786083555881
"sub-010",68,"Train","Concrete","New",1,643.199071971691
"sub-010",69,"Compassion","Concrete","Old",1,500.008267668218
"sub-010",70,"House","Abstract","Old",0,567.128305684068
"sub-010",71,"Beach","Concrete","Old",1,397.639163236427
"sub-010",72,"Faith","Abstract","Old",1,410.422337197807
"sub-010",73,"Generosity","Concrete","New",1,940.10946738719
"sub-010",74,"Humility","Concrete","Old",1,444.717288032218
"sub-010",75,"Camera","Abstract","New",1,720.588303635768
"sub-010",76,"Book","Abstract","New",1,530.207842418666
"sub-010",77,"Tree","Concrete","New",1,733.416613538495
"sub-010",78,"Happiness","Concrete","New",1,195.790066800087
"sub-010",79,"Hospital","Abstract","Old",1,454.637270898424
"sub-010",80,"Respect","Abstract","New",1,407.170608797728
"sub-010",81,"Love","Concrete","Old",1,548.311265008816
"sub-010",82,"Bridge","Concrete","Old",1,251.062817873387
"sub-010",83,"Train","Abstract","New",1,501.516627349486
"sub-010",84,"Gratitude","Abstract","Old",1,709.837131879529
"sub-010",85,"Hope","Concrete","Old",1,538.957111126697
"sub-010",86,"Park","Concrete","New",0,547.198088352061
"sub-010",87,"Faith","Concrete","Old",1,560.69562654078
"sub-010",88,"Tree","Abstract","New",1,433.531367497635
"sub-010",89,"Wisdom","Concrete","Old",1,609.442206216103
"sub-010",90,"Patience","Concrete","New",1,505.451480516914
"sub-010",91,"Shoe","Abstract","Old",1,720.097651733748
"sub-010",92,"Loyalty","Concrete","Old",1,520.360537220905
"sub-010",93,"Phone","Abstract","New",1,482.793858345167
"sub-010",94,"Boat","Abstract","New",1,973.264882528417
"sub-010",95,"Love","Abstract","Old",1,602.272288099492
"sub-010",96,"Beach","Abstract","Old",1,419.088648874335
"sub-010",97,"Car","Concrete","New",0,638.755751639313
"sub-010",98,"Mountain","Concrete","Old",0,206.790996943522
"sub-010",99,"Hope","Abstract","Old",1,637.647767859525
"sub-010",100,"Car","Abstract","New",1,405.787138327578
"sub-011",1,"Computer","Concrete","Old",0,529.245515293915
"sub-011",2,"Loyalty","Concrete","Old",1,493.095208200887
"sub-011",3,"Park","Concrete","New",1,222.537189193823
"sub-011",4,"Respect","Concrete","Old",1,819.679796899537
"sub-011",5,"Ambition","Concrete","Old",1,175.812188110758
"sub-011",6,"Love","Abstract","Old",1,710.615414690079
"sub-011",7,"House","Abstract","Old",1,567.914196643422
"sub-011",8,"Freedom","Concrete","New",1,612.036474042184
"sub-011",9,"Courage","Abstract","New",1,924.696604445478
"sub-011",10,"Dog","Abstract","New",1,610.273173343655
"sub-011",11,"Road","Abstract","Old",0,573.005934421753
"sub-011",12,"Humility","Concrete","New",1,45.088335189644
"sub-011",13,"School","Concrete","Old",0,402.235495578584
"sub-011",14,"Camera","Abstract","Old",1,140.757408179577
"sub-011",15,"Generosity","Abstract","Old",1,657.734067668086
"sub-011",16,"Compassion","Abstract","Old",1,611.667596355982
"sub-011",17,"Courage","Concrete","New",1,553.252477854886
"sub-011",18,"Friendship","Concrete","New",1,660.215214286302
"sub-011",19,"Mountain","Concrete","New",0,667.91481174343
"sub-011",20,"House","Concrete","Old",1,344.482665576808
"sub-011",21,"Friendship","Abstract","New",1,712.201505484568
"sub-011",22,"Table","Abstract","Old",1,523.201126122704
"sub-011",23,"Tree","Concrete","New",0,260.683796694719
"sub-011",24,"Trust","Concrete","Old",1,688.234069427029
"sub-011",25,"Creativity","Abstract","New",1,335.683197075192
"sub-011",26,"Beach","Concrete","Old",0,450.714013430788
"sub-011",27,"Train","Concrete","Old",1,417.332520223329
"sub-011",28,"Happiness","Concrete","New",1,575.650407794485
"sub-011",29,"Apple","Concrete","New",0,463.551559124186
"sub-011",30,"Happiness","Abstract","New",1,622.658647447981
"sub-011",31,"Integrity","Concrete","New",1,659.240033896123
"sub-011",32,"Freedom","Abstract","New",1,504.685121256414
"sub-011",33,"School","Abstract","Old",0,772.703361602397
"sub-011",34,"Boat","Abstract","New",1,900.784297195142
"sub-011",35,"Hospital","Concrete","New",1,615.440061356702
"sub-011",36,"Boat","Concrete","New",1,847.210136532779
"sub-011",37,"Tree","Abstract","New",0,494.749335421641
"sub-011",38,"Peace","Abstract","Old",1,442.699884414146
"sub-011",39,"Peace","Concrete","Old",1,77.2133071227557
"sub-011",40,"Generosity","Concrete","Old",1,392.924796752986
"sub-011",41,"Hope","Abstract","Old",1,254.490530475035
"sub-011",42,"Respect","Abstract","Old",1,702.775388837336
"sub-011",43,"Beach","Abstract","Old",1,787.135731911811
"sub-011",44,"Shoe","Concrete","New",0,311.993234662489
"sub-011",45,"Gratitude","Concrete","Old",1,333.530532457001
"sub-011",46,"Justice","Abstract","New",1,734.678956245497
"sub-011",47,"Determination","Concrete","Old",1,713.642703327449
"sub-011",48,"Honesty","Concrete","New",1,252.713519937817
"sub-011",49,"Car","Concrete","New",1,354.427810223354
"sub-011",50,"Window","Abstract","New",1,259.34853788928
"sub-011",51,"River","Abstract","New",1,631.182708234876
"sub-011",52,"Car","Abstract","New",1,621.544492174427
"sub-011",53,"Humility","Abstract","New",1,486.950419622506
"sub-011",54,"Creativity","Concrete","New",1,342.068370575525
"sub-011",55,"Success","Concrete","New",1,161.314197341048
"sub-011",56,"River","Concrete","New",1,379.418302013673
"sub-011",57,"Lamp","Abstract","New",1,814.381828830547
"sub-011",58,"Chair","Abstract","New",1,535.816061646794
"sub-011",59,"Hospital","Abstract","New",1,840.286803900894
"sub-011",60,"Success","Abstract","New",1,536.555320674135
"sub-011",61,"Compassion","Concrete","Old",1,635.720397014022
"sub-011",62,"Integrity","Abstract","New",1,508.481124124708
"sub-011",63,"Ambition","Abstract","Old",1,627.439350824379
"sub-011",64,"Wisdom","Abstract","Old",1,595.291680165002
"sub-011",65,"Garden","Abstract","New",1,507.542994697643
"sub-011",66,"Knowledge","Concrete","New",1,600.971317616228
"sub-011",67,"Love","Concrete","Old",1,507.896776887838
"sub-011",68,"Knowledge","Abstract","New",1,430.114644053281
"sub-011",69,"Patience","Concrete","Old",1,792.829058532062
"sub-011",70,"Bridge","Concrete","Old",0,508.554714258715
"sub-011",71,"Table","Concrete","Old",1,457.830490547836
"sub-011",72,"Park","Abstract","New",1,828.561448490728
"sub-011",73,"Computer","Abstract","Old",1,388.184546809221
"sub-011",74,"Apple","Abstract","New",1,1017.87247743161
"sub-011",75,"Loyalty","Abstract","Old",1,529.432821928976
"sub-011",76,"Road","Concrete","Old",0,564.624201110746
"sub-011",77,"Phone","Concrete","Old",1,100.79003581988
"sub-011",78,"Lamp","Concrete","New",0,540.271651763852
"sub-011",79,"Patience","Abstract","Old",1,166.437714857649
"sub-011",80,"Book","Abstract","Old",1,455.847144435755
"sub-011",81,"Hope","Concrete","Old",1,695.185082662764
"sub-011",82,"Faith","Concrete","Old",1,427.804411330669
"sub-011",83,"Shoe","Abstract","New",1,745.194005553133
"sub-011",84,"Bridge","Abstract","Old",0,915.294745196489
"sub-011",85,"Gratitude","Abstract","Old",1,550.353838305015
"sub-011",86,"Book","Concrete","Old",0,552.944425074762
"sub-011",87,"Justice","Concrete","New",1,562.415743995187
"sub-011",88,"Chair","Concrete","New",1,246.080485207522
"sub-011",89,"Trust","Abstract","Old",1,745.598097930117
"sub-011",90,"Honesty","Abstract","New",1,492.042677374409
"sub-011",91,"Wisdom","Concrete","Old",1,509.061736703107
"sub-011",92,"Train","Abstract","Old",1,530.51282519191
"sub-011",93,"Dog","Concrete","New",0,663.910133121524
"sub-011",94,"Determination","Abstract","Old",1,641.21432924103
"sub-011",95,"Garden","Concrete","New",0,369.791333761191
"sub-011",96,"Camera","Concrete","Old",1,329.921902809547
"sub-011",97,"Phone","Abstract","Old",1,890.170642615267
"sub-011",98,"Faith","Abstract","Old",1,519.491295443683
"sub-011",99,"Mountain","Abstract","New",1,762.031138462799
"sub-011",100,"Window","Concrete","New",0,455.258212375402
"sub-012",1,"Love","Abstract","Old",1,303.198020481436
"sub-012",2,"Shoe","Concrete","Old",1,430.645331500616
"sub-012",3,"Boat","Concrete","Old",0,486.402385912636
"sub-012",4,"Boat","Abstract","Old",1,838.795927579068
"sub-012",5,"Beach","Abstract","New",1,641.777402068545
"sub-012",6,"Loyalty","Concrete","Old",1,581.800991162106
"sub-012",7,"Happiness","Concrete","Old",1,553.17204754155
"sub-012",8,"Chair","Abstract","Old",1,521.649403815046
"sub-012",9,"Tree","Abstract","Old",1,844.217750233157
"sub-012",10,"Wisdom","Concrete","New",1,316.711036863612
"sub-012",11,"Hospital","Abstract","Old",1,817.092493447973
"sub-012",12,"Apple","Concrete","New",1,507.137081928739
"sub-012",13,"Book","Abstract","New",1,701.381633893194
"sub-012",14,"Hospital","Concrete","Old",0,753.546048345471
"sub-012",15,"Compassion","Concrete","Old",1,515.968948820461
"sub-012",16,"House","Concrete","Old",0,585.418794771802
"sub-012",17,"Book","Concrete","New",0,459.810502837517
"sub-012",18,"Train","Abstract","New",0,355.77154908766
"sub-012",19,"Gratitude","Abstract","Old",1,604.346998685211
"sub-012",20,"Window","Abstract","Old",1,315.911727094876
"sub-012",21,"Park","Abstract","New",1,462.389936580458
"sub-012",22,"Peace","Concrete","New",1,432.696672290664
"sub-012",23,"Tree","Concrete","Old",1,585.815840347305
"sub-012",24,"Honesty","Abstract","Old",1,671.847279455924
"sub-012",25,"Generosity","Concrete","New",1,856.17311984903
"sub-012",26,"Garden","Abstract","Old",1,712.087021277841
"sub-012",27,"Ambition","Abstract","New",1,839.162812518554
"sub-012",28,"Courage","Abstract","New",1,512.127093688007
"sub-012",29,"Shoe","Abstract","Old",1,667.954385056661
"sub-012",30,"Table","Abstract","New",1,457.282998188582
"sub-012",31,"Knowledge","Abstract","New",1,581.418627665363
"sub-012",32,"Faith","Concrete","Old",1,534.180372249389
"sub-012",33,"Car","Concrete","Old",1,391.535284188927
"sub-012",34,"Friendship","Abstract","New",1,473.477900455845
"sub-012",35,"Car","Abstract","Old",1,506.608136954557
"sub-012",36,"Camera","Abstract","Old",1,337.489581058263
"sub-012",37,"Train","Concrete","New",0,438.881957450237
"sub-012",38,"Justice","Concrete","New",1,629.913834839837
"sub-012",39,"Lamp","Concrete","New",1,593.505273612192
"sub-012",40,"Faith","Abstract","Old",1,442.128589733077
"sub-012",41,"Computer","Abstract","Old",1,664.970612503543
"sub-012",42,"Success","Concrete","Old",1,667.01001864534
"sub-012",43,"Freedom","Concrete","New",1,583.458633426345
"sub-012",44,"Knowledge","Concrete","New",1,280.551282676219
"sub-012",45,"Love","Concrete","Old",1,611.660383933274
"sub-012",46,"Hope","Abstract","New",1,1059.69717187881
"sub-012",47,"Trust","Concrete","Old",1,744.910133303144
"sub-012",48,"Loyalty","Abstract","Old",1,424.460502463757
"sub-012",49,"Garden","Concrete","Old",0,479.859143447314
"sub-012",50,"School","Abstract","Old",1,565.021097456026
"sub-012",51,"Courage","Concrete","New",1,526.386960060259
"sub-012",52,"Phone","Concrete","Old",1,663.479151944034
"sub-012",53,"Generosity","Abstract","New",1,436.951373683202
"sub-012",54,"Camera","Concrete","Old",0,464.783608872304
"sub-012",55,"Integrity","Concrete","Old",1,300.854353318118
"sub-012",56,"House","Abstract","Old",1,378.896814398541
"sub-012",57,"Ambition","Concrete","New",1,619.030691265208
"sub-012",58,"Patience","Abstract","Old",1,620.670942702313
"sub-012",59,"Success","Abstract","Old",1,240.540259019012
"sub-012",60,"Patience","Concrete","Old",1,430.705799708927
"sub-012",61,"School","Concrete","Old",1,427.525694952272
"sub-012",62,"Integrity","Abstract","Old",1,825.448849475572
"sub-012",63,"Respect","Concrete","New",1,587.756339273778
"sub-012",64,"Phone","Abstract","Old",1,228.06338495272
"sub-012",65,"Computer","Concrete","Old",1,626.205656180234
"sub-012",66,"Gratitude","Concrete","Old",1,138.767686086055
"sub-012",67,"Bridge","Concrete","New",0,719.45806677008
"sub-012",68,"Determination","Abstract","New",1,655.705296911167
"sub-012",69,"Humility","Abstract","Old",1,269.928948838907
"sub-012",70,"Mountain","Concrete","New",0,535.991698876191
"sub-012",71,"Respect","Abstract","New",1,1143.92765760996
"sub-012",72,"Happiness","Abstract","Old",1,451.99134490562
"sub-012",73,"Apple","Abstract","New",1,958.441798143
"sub-012",74,"Wisdom","Abstract","New",1,856.990061313969
"sub-012",75,"Window","Concrete","Old",1,444.269760153462
"sub-012",76,"Peace","Abstract","New",1,460.654581592422
"sub-012",77,"Chair","Concrete","Old",1,516.764163057833
"sub-012",78,"Freedom","Abstract","New",1,389.116497662184
"sub-012",79,"Dog","Concrete","New",0,433.276973855268
"sub-012",80,"Bridge","Abstract","New",1,508.212042742116
"sub-012",81,"Compassion","Abstract","Old",1,331.375264120215
"sub-012",82,"Justice","Abstract","New",1,504.698441943483
"sub-012",83,"Friendship","Concrete","New",1,531.268170554852
"sub-012",84,"Mountain","Abstract","New",1,374.772035789101
"sub-012",85,"Creativity","Concrete","New",1,127.189958784731
"sub-012",86,"Table","Concrete","New",1,298.287684050309
"sub-012",87,"Lamp","Abstract","New",1,517.170145100303
"sub-012",88,"Trust","Abstract","Old",1,546.664422930256
"sub-012",89,"Hope","Concrete","New",1,545.078399412793
"sub-012",90,"Determination","Concrete","New",1,605.994397233556
"sub-012",91,"River","Concrete","New",0,508.523632860149
"sub-012",92,"River","Abstract","New",0,353.293590316478
"sub-012",93,"Dog","Abstract","New",1,887.347495295124
"sub-012",94,"Road","Concrete","New",1,483.988146138978
"sub-012",95,"Park","Concrete","New",1,360.464774351255
"sub-012",96,"Creativity","Abstract","New",1,782.49740890488
"sub-012",97,"Beach","Concrete","New",0,134.015942655246
"sub-012",98,"Road","Abstract","New",1,533.762377449497
"sub-012",99,"Humility","Concrete","Old",1,437.298034541267
"sub-012",100,"Honesty","Concrete","Old",1,458.842408238832
"sub-013",1,"Camera","Concrete","New",0,716.24900458669
"sub-013",2,"Ambition","Abstract","Old",1,650.298682850357
"sub-013",3,"Shoe","Abstract","Old",1,416.291353716166
"sub-013",4,"Apple","Abstract","Old",1,688.516150168504
"sub-013",5,"Mountain","Concrete","New",0,893.712562821658
"sub-013",6,"Faith","Abstract","Old",1,574.317860753671
"sub-013",7,"Hospital","Abstract","New",1,223.246346750458
"sub-013",8,"Wisdom","Concrete","New",1,619.37360037629
"sub-013",9,"Humility","Abstract","New",1,432.054717258738
"sub-013",10,"Success","Abstract","Old",1,600.510370824495
"sub-013",11,"Window","Concrete","Old",1,565.112756348082
"sub-013",12,"Dog","Abstract","New",1,551.402909675004
"sub-013",13,"Honesty","Abstract","Old",1,208.509151141576
"sub-013",14,"Lamp","Abstract","New",1,593.659069406313
"sub-013",15,"House","Abstract","Old",1,294.9080772465
"sub-013",16,"Camera","Abstract","New",1,536.046682356863
"sub-013",17,"Friendship","Concrete","Old",1,580.546859245982
"sub-013",18,"Patience","Concrete","New",1,733.096610085832
"sub-013",19,"Love","Abstract","New",1,766.094709522815
"sub-013",20,"Trust","Concrete","Old",1,307.839710751616
"sub-013",21,"School","Concrete","New",1,328.692852770467
"sub-013",22,"Computer","Abstract","New",1,675.152940505516
"sub-013",23,"Phone","Concrete","Old",0,865.354508433913
"sub-013",24,"Car","Abstract","New",1,877.251074601262
"sub-013",25,"Creativity","Concrete","New",1,266.677492956386
"sub-013",26,"Gratitude","Concrete","Old",1,385.952410926259
"sub-013",27,"Creativity","Abstract","New",1,509.334104021041
"sub-013",28,"Freedom","Concrete","Old",1,367.110280017395
"sub-013",29,"Loyalty","Concrete","New",1,414.165214596876
"sub-013",30,"Apple","Concrete","Old",0,653.06072538046
"sub-013",31,"Courage","Concrete","Old",1,266.360272443887
"sub-013",32,"Book","Abstract","Old",1,732.12204172484
"sub-013",33,"Ambition","Concrete","Old",1,363.461296167367
"sub-013",34,"Lamp","Concrete","New",0,478.070092055879
"sub-013",35,"Train","Abstract","Old",1,626.066167950306
"sub-013",36,"Generosity","Abstract","New",1,647.282850064423
"sub-013",37,"Bridge","Concrete","New",0,711.944248395154
"sub-013",38,"Honesty","Concrete","Old",1,459.770487756353
"sub-013",39,"Humility","Concrete","New",1,581.540186198509
"sub-013",40,"Car","Concrete","New",0,785.587408580153
"sub-013",41,"Freedom","Abstract","Old",1,287.053612980905
"sub-013",42,"Road","Abstract","Old",1,693.284301876406
"sub-013",43,"Boat","Concrete","Old",1,167.990976821026
"sub-013",44,"Knowledge","Abstract","New",1,756.803277305659
"sub-013",45,"Loyalty","Abstract","New",1,786.142047666719
"sub-013",46,"Table","Abstract","Old",1,866.611042326112
"sub-013",47,"Table","Concrete","Old",0,255.331669157521
"sub-013",48,"Generosity","Concrete","New",1,512.974420400519
"sub-013",49,"Integrity","Concrete","New",1,442.421923408845
"sub-013",50,"Patience","Abstract","New",1,499.565220320177
"sub-013",51,"Determination","Concrete","Old",1,661.455060309924
"sub-013",52,"Tree","Abstract","Old",1,268.096320914166
"sub-013",53,"Compassion","Concrete","New",1,258.837549920047
"sub-013",54,"Faith","Concrete","Old",1,700.146206989991
"sub-013",55,"Peace","Abstract","New",1,548.169974673386
"sub-013",56,"Justice","Abstract","New",1,289.554312975951
"sub-013",57,"House","Concrete","Old",0,92.5122988461387
"sub-013",58,"Window","Abstract","Old",1,487.22852807083
"sub-013",59,"River","Abstract","New",1,370.608851420921
"sub-013",60,"Book","Concrete","Old",1,1017.58806540811
"sub-013",61,"Boat","Abstract","Old",1,656.735542603362
"sub-013",62,"Chair","Concrete","New",0,45.8189375987343
"sub-013",63,"Hospital","Concrete","New",1,313.41026552904
"sub-013",64,"Bridge","Abstract","New",1,466.721087480321
"sub-013",65,"Gratitude","Abstract","Old",1,592.313299399583
"sub-013",66,"Knowledge","Concrete","New",1,623.443171405152
"sub-013",67,"Phone","Abstract","Old",1,613.684816027931
"sub-013",68,"Happiness","Abstract","New",1,418.709132713713
"sub-013",69,"Compassion","Abstract","New",1,668.76798886149
"sub-013",70,"River","Concrete","New",0,359.49159692914
"sub-013",71,"Park","Concrete","Old",1,563.234821642034
"sub-013",72,"Beach","Concrete","Old",0,223.94894804848
"sub-013",73,"Success","Concrete","Old",1,464.11782423539
"sub-013",74,"Happiness","Concrete","New",1,434.81411198734
"sub-013",75,"Train","Concrete","Old",0,636.418106083656
"sub-013",76,"Wisdom","Abstract","New",1,832.381023789806
"sub-013",77,"Hope","Abstract","Old",1,654.042681074256
"sub-013",78,"Dog","Concrete","New",1,622.97720292412
"sub-013",79,"Peace","Concrete","New",1,530.08323062358
"sub-013",80,"Road","Concrete","Old",0,335.753461002176
"sub-013",81,"Courage","Abstract","Old",1,664.252946194889
"sub-013",82,"Hope","Concrete","Old",1,228.6697052964
"sub-013",83,"Garden","Concrete","New",1,203.22385492191
"sub-013",84,"Determination","Abstract","Old",1,701.494337236935
"sub-013",85,"Friendship","Abstract","Old",1,678.559793148733
"sub-013",86,"Respect","Concrete","Old",1,325.687613107701
"sub-013",87,"Tree","Concrete","Old",0,577.632141018652
"sub-013",88,"Shoe","Concrete","Old",1,438.060740320295
"sub-013",89,"Trust","Abstract","Old",1,396.792526004718
"sub-013",90,"Love","Concrete","New",1,640.695263942246
"sub-013",91,"Integrity","Abstract","New",1,619.877320090595
"sub-013",92,"Justice","Concrete","New",1,285.591965851298
"sub-013",93,"Chair","Abstract","New",1,705.376849033339
"sub-013",94,"Park","Abstract","Old",1,905.578064816652
"sub-013",95,"Garden","Abstract","New",1,336.988710522602
"sub-013",96,"Mountain","Abstract","New",1,715.616220556541
"sub-013",97,"School","Abstract","New",1,268.499900996713
"sub-013",98,"Computer","Concrete","New",1,409.640137340265
"sub-013",99,"Beach","Abstract","Old",1,548.985999391761
"sub-013",100,"Respect","Abstract","Old",1,726.882182101196
"sub-014",1,"Apple","Concrete","Old",1,654.914304317926
"sub-014",2,"Integrity","Abstract","Old",1,51.3511641296599
"sub-014",3,"Hospital","Abstract","Old",1,419.635493636592
"sub-014",4,"Window","Abstract","Old",1,544.123124838185
"sub-014",5,"River","Concrete","New",0,601.989400029866
"sub-014",6,"Car","Abstract","New",1,888.135903894242
"sub-014",7,"Honesty","Concrete","New",1,283.458957767127
"sub-014",8,"Camera","Abstract","New",1,491.937237295923
"sub-014",9,"Wisdom","Abstract","Old",1,566.923066523048
"sub-014",10,"Camera","Concrete","New",1,478.199751731522
"sub-014",11,"Hope","Concrete","Old",1,513.859051839931
"sub-014",12,"Boat","Concrete","New",0,-78.142347567387
"sub-014",13,"Ambition","Abstract","Old",1,621.250001657022
"sub-014",14,"School","Concrete","Old",1,503.179834481386
"sub-014",15,"Phone","Abstract","Old",1,409.423414401807
"sub-014",16,"Patience","Abstract","New",1,467.27188452825
"sub-014",17,"Hope","Abstract","Old",1,244.477770151
"sub-014",18,"Justice","Abstract","Old",1,938.262917862545
"sub-014",19,"Trust","Concrete","New",1,712.097181527876
"sub-014",20,"Trust","Abstract","New",1,363.803626603718
"sub-014",21,"Love","Concrete","New",1,461.661876820922
"sub-014",22,"Justice","Concrete","Old",1,434.917045292422
"sub-014",23,"Determination","Abstract","Old",1,437.227764593119
"sub-014",24,"Honesty","Abstract","New",1,619.250394679436
"sub-014",25,"Beach","Concrete","Old",1,239.460446878454
"sub-014",26,"Respect","Abstract","New",1,608.520215861509
"sub-014",27,"Hospital","Concrete","Old",1,700.466450751975
"sub-014",28,"Chair","Abstract","Old",1,220.675588524872
"sub-014",29,"Wisdom","Concrete","Old",1,462.342207028926
"sub-014",30,"Park","Concrete","Old",1,164.925178437718
"sub-014",31,"Loyalty","Concrete","New",1,649.316152025555
"sub-014",32,"Garden","Concrete","Old",1,290.187689992291
"sub-014",33,"Compassion","Abstract","Old",1,307.944386861448
"sub-014",34,"Window","Concrete","Old",1,412.268397345706
"sub-014",35,"Compassion","Concrete","Old",1,283.183179691867
"sub-014",36,"Computer","Concrete","New",0,471.919692275578
"sub-014",37,"Humility","Abstract","Old",1,641.633170900671
"sub-014",38,"Mountain","Concrete","Old",1,565.03888245999
"sub-014",39,"Table","Concrete","Old",0,294.674903859564
"sub-014",40,"Courage","Abstract","Old",1,485.201510848977
"sub-014",41,"Garden","Abstract","Old",1,561.883412516456
"sub-014",42,"Happiness","Abstract","New",1,805.090611808938
"sub-014",43,"Dog","Abstract","New",0,798.055559137603
"sub-014",44,"Computer","Abstract","New",1,614.160992752431
"sub-014",45,"Road","Abstract","New",1,916.311837767668
"sub-014",46,"Lamp","Abstract","Old",1,666.107391146527
"sub-014",47,"Mountain","Abstract","Old",1,583.329903124199
"sub-014",48,"Generosity","Concrete","New",1,601.079558198632
"sub-014",49,"Park","Abstract","Old",1,598.61654905117
"sub-014",50,"Table","Abstract","Old",1,372.880321266326
"sub-014",51,"School","Abstract","Old",1,581.981708511386
"sub-014",52,"House","Concrete","New",1,489.645881547813
"sub-014",53,"Gratitude","Concrete","New",1,489.750981781507
"sub-014",54,"Determination","Concrete","Old",1,681.725086023174
"sub-014",55,"Peace","Abstract","Old",1,608.776410763197
"sub-014",56,"Shoe","Concrete","Old",1,686.311692889742
"sub-014",57,"Book","Concrete","New",0,673.317789774661
"sub-014",58,"Shoe","Abstract","Old",1,419.604088437734
"sub-014",59,"Respect","Concrete","New",1,454.458888352072
"sub-014",60,"Loyalty","Abstract","New",1,796.724749272426
"sub-014",61,"Love","Abstract","New",1,713.547582196824
"sub-014",62,"Ambition","Concrete","Old",1,605.60748229782
"sub-014",63,"Tree","Concrete","New",0,271.795576323506
"sub-014",64,"Success","Abstract","New",1,584.658312518844
"sub-014",65,"Gratitude","Abstract","New",1,247.944981601355
"sub-014",66,"Phone","Concrete","Old",1,430.726840704604
"sub-014",67,"Train","Concrete","New",0,414.25331808385
"sub-014",68,"Integrity","Concrete","Old",1,241.985571750789
"sub-014",69,"Beach","Abstract","Old",1,387.136415156455
"sub-014",70,"Courage","Concrete","Old",1,623.335137638302
"sub-014",71,"Lamp","Concrete","Old",0,308.857707945313
"sub-014",72,"Tree","Abstract","New",1,304.407591580714
"sub-014",73,"River","Abstract","New",1,628.918294805157
"sub-014",74,"Happiness","Concrete","New",1,314.608920443404
"sub-014",75,"Boat","Abstract","New",1,797.539231695353
"sub-014",76,"Apple","Abstract","Old",1,795.108962271351
"sub-014",77,"Success","Concrete","New",1,760.17810492596
"sub-014",78,"Knowledge","Concrete","Old",1,73.5680819147238
"sub-014",79,"Faith","Abstract","New",1,462.011309969209
"sub-014",80,"Humility","Concrete","Old",1,334.750094445841
"sub-014",81,"Car","Concrete","New",1,618.954413481282
"sub-014",82,"Creativity","Abstract","New",1,313.589155203516
"sub-014",83,"Bridge","Concrete","New",1,394.6564658828
"sub-014",84,"Chair","Concrete","Old",0,513.474041652483
"sub-014",85,"Dog","Concrete","New",0,715.192364593886
"sub-014",86,"Road","Concrete","New",0,439.739806459555
"sub-014",87,"Generosity","Abstract","New",1,532.892449152178
"sub-014",88,"Bridge","Abstract","New",1,547.451106228843
"sub-014",89,"Peace","Concrete","Old",1,282.28573711748
"sub-014",90,"Friendship","Concrete","Old",1,508.668072986382
"sub-014",91,"House","Abstract","New",1,631.952694192574
"sub-014",92,"Friendship","Abstract","Old",1,676.746501747465
"sub-014",93,"Book","Abstract","New",1,687.303045360778
"sub-014",94,"Patience","Concrete","New",1,461.652692948795
"sub-014",95,"Knowledge","Abstract","Old",1,499.365614595759
"sub-014",96,"Creativity","Concrete","New",1,507.658606491306
"sub-014",97,"Freedom","Abstract","New",1,473.944087845799
"sub-014",98,"Train","Abstract","New",1,780.272653892789
"sub-014",99,"Faith","Concrete","New",1,616.834199520756
"sub-014",100,"Freedom","Concrete","New",1,594.901080101301
"sub-015",1,"Love","Concrete","New",1,376.584393881478
"sub-015",2,"Beach","Concrete","Old",1,789.403572021187
"sub-015",3,"Happiness","Concrete","Old",1,428.41007667748
"sub-015",4,"Lamp","Concrete","Old",1,628.144905591458
"sub-015",5,"Faith","Concrete","Old",1,-27.4085977742207
"sub-015",6,"Garden","Abstract","New",1,665.192881972219
"sub-015",7,"Peace","Concrete","Old",1,636.7351736453
"sub-015",8,"Lamp","Abstract","Old",1,835.154185416657
"sub-015",9,"Knowledge","Abstract","New",1,646.598879171751
"sub-015",10,"Hospital","Abstract","New",1,566.828922747192
"sub-015",11,"Justice","Abstract","New",1,732.900823712296
"sub-015",12,"Creativity","Concrete","Old",1,585.059203494677
"sub-015",13,"Park","Concrete","Old",0,377.227959679391
"sub-015",14,"Ambition","Concrete","New",1,240.219448571753
"sub-015",15,"Peace","Abstract","Old",1,884.378738456628
"sub-015",16,"Park","Abstract","Old",1,341.409446249465
"sub-015",17,"Dog","Abstract","Old",0,523.042074004359
"sub-015",18,"Integrity","Concrete","Old",1,842.153975997996
"sub-015",19,"Bridge","Abstract","New",1,442.291153682045
"sub-015",20,"Table","Concrete","New",1,357.50426629974
"sub-015",21,"Mountain","Abstract","New",1,538.692429761137
"sub-015",22,"Wisdom","Abstract","New",1,340.051608093167
"sub-015",23,"Loyalty","Abstract","Old",1,724.991221618193
"sub-015",24,"Friendship","Abstract","New",1,748.142491783516
"sub-015",25,"River","Concrete","Old",0,393.315055104707
"sub-015",26,"Road","Concrete","New",1,398.14433293704
"sub-015",27,"Respect","Concrete","Old",1,275.285974560387
"sub-015",28,"Gratitude","Concrete","New",1,575.363440447294
"sub-015",29,"Book","Abstract","Old",1,609.68744812467
"sub-015",30,"Generosity","Concrete","Old",1,627.663565460976
"sub-015",31,"Determination","Concrete","Old",1,578.668780288357
"sub-015",32,"Mountain","Concrete","New",1,268.214235672872
"sub-015",33,"Dog","Concrete","Old",0,872.411660948279
"sub-015",34,"Honesty","Abstract","New",1,415.427264211429
"sub-015",35,"Camera","Concrete","New",0,377.705224346228
"sub-015",36,"Knowledge","Concrete","New",1,674.712618829141
"sub-015",37,"Compassion","Concrete","Old",1,357.785294428671
"sub-015",38,"Success","Concrete","New",1,254.079550724822
"sub-015",39,"Hope","Abstract","New",1,301.62442999759
"sub-015",40,"Bridge","Concrete","New",1,365.199051017303
"sub-015",41,"Wisdom","Concrete","New",1,593.132332607306
"sub-015",42,"Freedom","Abstract","New",1,790.892363360509
"sub-015",43,"Boat","Concrete","New",1,541.170754963236
"sub-015",44,"Computer","Abstract","New",1,157.285766430824
"sub-015",45,"Chair","Concrete","Old",0,363.815173138973
"sub-015",46,"Gratitude","Abstract","New",1,730.352053584038
"sub-015",47,"Faith","Abstract","Old",1,398.389627581025
"sub-015",48,"Garden","Concrete","New",0,436.092573047472
"sub-015",49,"Patience","Concrete","New",1,560.700120231883
"sub-015",50,"Hospital","Concrete","New",0,840.353368119106
"sub-015",51,"Patience","Abstract","New",1,427.87410031762
"sub-015",52,"River","Abstract","Old",1,594.363505277614
"sub-015",53,"Road","Abstract","New",1,526.41373447197
"sub-015",54,"Creativity","Abstract","Old",1,757.840221558253
"sub-015",55,"Shoe","Abstract","Old",1,226.490774515853
"sub-015",56,"Car","Concrete","Old",1,162.798622192879
"sub-015",57,"Car","Abstract","Old",1,269.421399804629
"sub-015",58,"Boat","Abstract","New",1,378.647017118503
"sub-015",59,"Computer","Concrete","New",1,264.317675618851
"sub-015",60,"Compassion","Abstract","Old",1,477.056871368566
"sub-015",61,"House","Abstract","Old",1,412.142437610986
"sub-015",62,"Friendship","Concrete","New",1,379.400712571296
"sub-015",63,"Ambition","Abstract","New",1,342.046564203745
"sub-015",64,"Love","Abstract","New",1,672.379249965691
"sub-015",65,"Book","Concrete","Old",0,798.128468918617
"sub-015",66,"Loyalty","Concrete","Old",1,707.096612317261
"sub-015",67,"Courage","Concrete","New",1,357.597377473082
"sub-015",68,"Shoe","Concrete","Old",1,625.906915694108
"sub-015",69,"Phone","Concrete","New",0,698.176503686042
"sub-015",70,"Beach","Abstract","Old",1,602.084201346995
"sub-015",71,"Freedom","Concrete","New",1,707.212939201739
"sub-015",72,"House","Concrete","Old",1,314.915624006338
"sub-015",73,"Trust","Concrete","Old",1,657.36578648818
"sub-015",74,"Happiness","Abstract","Old",1,449.615119395125
"sub-015",75,"Justice","Concrete","New",1,178.405510014403
"sub-015",76,"Success","Abstract","New",1,612.175099931446
"sub-015",77,"Determination","Abstract","Old",1,656.358962241042
"sub-015",78,"Phone","Abstract","New",1,332.050516657387
"sub-015",79,"Courage","Abstract","New",1,315.986518911289
"sub-015",80,"Chair","Abstract","Old",1,783.535701384375
"sub-015",81,"Window","Concrete","Old",1,201.406724351704
"sub-015",82,"Train","Abstract","Old",1,488.301628101255
"sub-015",83,"Respect","Abstract","Old",1,395.893483017301
"sub-015",84,"Window","Abstract","Old",1,567.886183092733
"sub-015",85,"Tree","Abstract","New",1,429.401674944151
"sub-015",86,"Humility","Abstract","New",1,1001.78591914117
"sub-015",87,"Apple","Concrete","Old",0,230.260155188796
"sub-015",88,"Integrity","Abstract","Old",1,368.335175968897
"sub-015",89,"Table","Abstract","New",1,731.122991260928
"sub-015",90,"Humility","Concrete","New",1,534.523181061087
"sub-015",91,"School","Abstract","Old",1,629.026575582951
"sub-015",92,"Generosity","Abstract","Old",1,473.580003808027
"sub-015",93,"Trust","Abstract","Old",1,688.189983101966
"sub-015",94,"School","Concrete","Old",1,889.009968204464
"sub-015",95,"Tree","Concrete","New",0,483.68243374175
"sub-015",96,"Honesty","Concrete","New",1,226.923406248227
"sub-015",97,"Hope","Concrete","New",1,537.63483798973
"sub-015",98,"Train","Concrete","Old",1,689.494999446099
"sub-015",99,"Apple","Abstract","Old",1,378.89540987452
"sub-015",100,"Camera","Abstract","New",1,737.620442550918
"sub-016",1,"Justice","Abstract","New",1,860.843467484132
"sub-016",2,"Trust","Concrete","New",1,341.429586803184
"sub-016",3,"Hospital","Concrete","New",0,147.637405472998
"sub-016",4,"Freedom","Abstract","Old",1,592.196251385339
"sub-016",5,"Knowledge","Concrete","New",1,760.584650421506
"sub-016",6,"Compassion","Concrete","Old",1,400.68506399138
"sub-016",7,"Window","Abstract","New",1,174.870135654166
"sub-016",8,"Friendship","Abstract","New",1,499.099306490472
"sub-016",9,"Train","Concrete","Old",1,561.932996160252
"sub-016",10,"Boat","Concrete","New",1,404.641688289797
"sub-016",11,"Camera","Abstract","New",1,561.090183910062
"sub-016",12,"Dog","Abstract","Old",1,862.032778310817
"sub-016",13,"Creativity","Abstract","New",1,653.486186809081
"sub-016",14,"Train","Abstract","Old",1,527.195613447272
"sub-016",15,"Patience","Concrete","New",1,707.174005040269
"sub-016",16,"Integrity","Concrete","Old",1,221.762035177397
"sub-016",17,"Lamp","Concrete","Old",1,511.941267795009
"sub-016",18,"Courage","Abstract","New",1,702.214381441776
"sub-016",19,"Road","Concrete","Old",1,568.400720522769
"sub-016",20,"Garden","Concrete","Old",1,275.247784117325
"sub-016",21,"Humility","Abstract","New",1,539.349525939766
"sub-016",22,"Dog","Concrete","Old",1,480.055243096639
"sub-016",23,"Success","Abstract","New",1,536.028652561258
"sub-016",24,"Honesty","Concrete","Old",1,637.279395852247
"sub-016",25,"Gratitude","Concrete","Old",1,833.121495946762
"sub-016",26,"Computer","Abstract","Old",1,304.477325496848
"sub-016",27,"Integrity","Abstract","Old",1,406.741114779635
"sub-016",28,"Wisdom","Concrete","New",1,316.798273294496
"sub-016",29,"Car","Abstract","Old",1,845.644269211975
"sub-016",30,"Determination","Concrete","Old",1,463.028853850916
"sub-016",31,"Happiness","Concrete","Old",1,294.840548881811
"sub-016",32,"Garden","Abstract","Old",1,802.639104686485
"sub-016",33,"Honesty","Abstract","Old",1,626.131181830932
"sub-016",34,"Apple","Abstract","New",1,904.494993325289
"sub-016",35,"Chair","Abstract","Old",1,684.920425432027
"sub-016",36,"Determination","Abstract","Old",1,460.28604436847
"sub-016",37,"Computer","Concrete","Old",1,569.456121351258
"sub-016",38,"Park","Concrete","Old",0,692.140950436783
"sub-016",39,"Table","Abstract","Old",1,728.656064307652
"sub-016",40,"Phone","Concrete","Old",0,359.940190536387
"sub-016",41,"Tree","Concrete","New",0,651.082511453362
"sub-016",42,"Park","Abstract","Old",1,486.419548142245
"sub-016",43,"Patience","Abstract","New",1,896.619286821154
"sub-016",44,"Peace","Concrete","Old",1,757.56177310889
"sub-016",45,"Ambition","Abstract","Old",1,493.251903332307
"sub-016",46,"Justice","Concrete","New",1,305.331957261328
"sub-016",47,"Hope","Concrete","New",1,728.384013044247
"sub-016",48,"House","Abstract","New",1,569.345113097921
"sub-016",49,"Ambition","Concrete","Old",1,744.130742180099
"sub-016",50,"Camera","Concrete","New",1,508.29576113419
"sub-016",51,"Happiness","Abstract","Old",1,659.693644594219
"sub-016",52,"Love","Concrete","New",1,513.657270480846
"sub-016",53,"Shoe","Abstract","New",1,478.080048904555
"sub-016",54,"Loyalty","Abstract","Old",1,848.28565256838
"sub-016",55,"Wisdom","Abstract","New",1,651.569142874747
"sub-016",56,"Loyalty","Concrete","Old",1,740.802423702258
"sub-016",57,"Compassion","Abstract","Old",1,491.007694145822
"sub-016",58,"Trust","Abstract","New",1,414.567091542234
"sub-016",59,"Table","Concrete","Old",0,57.3795409267626
"sub-016",60,"Bridge","Abstract","New",1,539.891393499367
"sub-016",61,"Respect","Concrete","Old",1,690.321829905276
"sub-016",62,"Friendship","Concrete","New",1,563.777280999823
"sub-016",63,"Road","Abstract","Old",1,534.520937093068
"sub-016",64,"Generosity","Concrete","Old",1,550.596926712936
"sub-016",65,"Chair","Concrete","Old",1,489.227525332545
"sub-016",66,"Book","Concrete","New",1,453.56765487568
"sub-016",67,"Lamp","Abstract","Old",1,382.321364842376
"sub-016",68,"Hospital","Abstract","New",1,958.464134561629
"sub-016",69,"House","Concrete","New",0,554.039353620804
"sub-016",70,"Beach","Concrete","New",1,567.997447022123
"sub-016",71,"Phone","Abstract","Old",1,547.012708332697
"sub-016",72,"Mountain","Concrete","Old",0,326.656986820958
"sub-016",73,"Window","Concrete","New",1,280.744883392013
"sub-016",74,"Hope","Abstract","New",1,331.771827297806
"sub-016",75,"River","Concrete","New",0,503.34331798772
"sub-016",76,"Car","Concrete","Old",1,721.272509155875
"sub-016",77,"Beach","Abstract","New",1,498.317151369556
"sub-016",78,"Respect","Abstract","Old",1,464.387708189649
"sub-016",79,"School","Concrete","Old",0,211.153340407807
"sub-016",80,"Knowledge","Abstract","New",1,500.736349914825
"sub-016",81,"Boat","Abstract","New",1,298.599507406373
"sub-016",82,"Creativity","Concrete","New",1,571.128638665602
"sub-016",83,"Faith","Concrete","New",1,383.994230414324
"sub-016",84,"Book","Abstract","New",1,516.882417753353
"sub-016",85,"Gratitude","Abstract","Old",1,751.946646852438
"sub-016",86,"Generosity","Abstract","Old",1,681.179280793706
"sub-016",87,"Love","Abstract","New",1,137.526192329194
"sub-016",88,"River","Abstract","New",1,583.26093527388
"sub-016",89,"Mountain","Abstract","Old",1,445.960171475148
"sub-016",90,"Courage","Concrete","New",1,349.46505551284
"sub-016",91,"Faith","Abstract","New",1,422.085094224311
"sub-016",92,"Peace","Abstract","Old",1,680.773929330729
"sub-016",93,"Bridge","Concrete","New",0,877.696127716738
"sub-016",94,"Humility","Concrete","New",1,513.023768070261
"sub-016",95,"Tree","Abstract","New",1,637.118873887353
"sub-016",96,"Success","Concrete","New",1,721.658718866207
"sub-016",97,"Shoe","Concrete","New",1,771.305304021639
"sub-016",98,"School","Abstract","Old",1,467.317989506042
"sub-016",99,"Freedom","Concrete","Old",1,337.174293044241
"sub-016",100,"Apple","Concrete","New",1,306.703791043142
"sub-017",1,"Patience","Abstract","Old",1,283.13058236199
"sub-017",2,"Justice","Concrete","Old",1,193.254526996662
"sub-017",3,"Justice","Abstract","Old",1,833.659581936162
"sub-017",4,"Trust","Abstract","Old",1,592.517130952509
"sub-017",5,"Humility","Abstract","Old",1,289.661214252002
"sub-017",6,"Apple","Concrete","Old",0,632.648919476098
"sub-017",7,"Hope","Abstract","Old",1,194.759460528791
"sub-017",8,"Gratitude","Concrete","Old",1,642.333741897532
"sub-017",9,"Dog","Concrete","New",0,560.581888898292
"sub-017",10,"Tree","Concrete","New",0,407.625640859013
"sub-017",11,"Determination","Abstract","Old",1,893.521287256414
"sub-017",12,"Train","Abstract","Old",1,822.30251149204
"sub-017",13,"Love","Abstract","Old",1,928.088509378195
"sub-017",14,"Gratitude","Abstract","Old",1,277.386007282214
"sub-017",15,"Bridge","Abstract","Old",0,439.524460945924
"sub-017",16,"Compassion","Concrete","New",1,201.834646458256
"sub-017",17,"Garden","Abstract","Old",1,585.880693158428
"sub-017",18,"Wisdom","Concrete","Old",1,285.237424010336
"sub-017",19,"Shoe","Concrete","New",0,292.607235543282
"sub-017",20,"Train","Concrete","Old",1,190.919545932295
"sub-017",21,"Friendship","Abstract","Old",1,445.407628563296
"sub-017",22,"Peace","Concrete","New",1,382.770273110423
"sub-017",23,"Book","Abstract","New",1,715.817857963475
"sub-017",24,"Faith","Abstract","New",1,308.885373082087
"sub-017",25,"Loyalty","Concrete","New",1,398.479353613542
"sub-017",26,"Integrity","Concrete","New",1,351.194435961346
"sub-017",27,"Park","Abstract","Old",1,1018.35090650455
"sub-017",28,"Ambition","Concrete","New",1,594.231729057488
"sub-017",29,"Freedom","Abstract","New",1,398.810746241596
"sub-017",30,"Phone","Concrete","New",1,525.105960096066
"sub-017",31,"Phone","Abstract","New",1,448.896221938783
"sub-017",32,"Beach","Abstract","New",1,545.806354096051
"sub-017",33,"Table","Abstract","New",1,228.858349799066
"sub-017",34,"Generosity","Abstract","New",1,556.084064148461
"sub-017",35,"Chair","Concrete","Old",1,299.762313207095
"sub-017",36,"Loyalty","Abstract","New",1,712.911419797099
"sub-017",37,"Garden","Concrete","Old",1,554.965833362791
"sub-017",38,"Table","Concrete","New",1,478.068513606449
"sub-017",39,"Integrity","Abstract","New",1,444.659653033816
"sub-017",40,"Computer","Concrete","Old",1,618.963535296585
"sub-017",41,"School","Abstract","New",1,623.607111306462
"sub-017",42,"Lamp","Concrete","Old",1,582.822644653467
"sub-017",43,"Respect","Abstract","New",1,482.035534441065
"sub-017",44,"Generosity","Concrete","New",1,364.202092959013
"sub-017",45,"Respect","Concrete","New",1,507.795314056639
"sub-017",46,"Peace","Abstract","New",1,620.371268617508
"sub-017",47,"Car","Abstract","New",1,485.977071524593
"sub-017",48,"Success","Concrete","New",1,647.812422441536
"sub-017",49,"Wisdom","Abstract","Old",1,533.058329706009
"sub-017",50,"Freedom","Concrete","New",1,695.898703583759
"sub-017",51,"Trust","Concrete","Old",1,363.839788202266
"sub-017",52,"School","Concrete","New",1,474.440578685665
"sub-017",53,"Road","Concrete","New",1,556.157555846418
"sub-017",54,"Compassion","Abstract","New",1,678.095730732538
"sub-017",55,"Shoe","Abstract","New",0,970.574946597294
"sub-017",56,"Courage","Abstract","Old",1,674.142027624154
"sub-017",57,"Honesty","Concrete","New",1,517.062523295556
"sub-017",58,"Boat","Concrete","Old",0,410.53984292525
"sub-017",59,"Dog","Abstract","New",0,489.844672416095
"sub-017",60,"Tree","Abstract","New",1,308.660710586597
"sub-017",61,"Lamp","Abstract","Old",1,617.786121284449
"sub-017",62,"Car","Concrete","New",1,532.734275565502
"sub-017",63,"Honesty","Abstract","New",1,333.07396363144
"sub-017",64,"Happiness","Abstract","New",1,882.068310192097
"sub-017",65,"Book","Concrete","New",0,660.831032555506
"sub-017",66,"House","Abstract","Old",1,643.093780581026
"sub-017",67,"Creativity","Abstract","New",1,377.337393991409
"sub-017",68,"Hospital","Concrete","Old",1,328.760523055883
"sub-017",69,"Success","Abstract","New",1,543.040272410039
"sub-017",70,"Camera","Abstract","New",1,596.693465380668
"sub-017",71,"Hospital","Abstract","Old",1,734.41801990581
"sub-017",72,"Knowledge","Abstract","Old",1,154.022906215971
"sub-017",73,"Mountain","Abstract","Old",0,958.657289567742
"sub-017",74,"Beach","Concrete","New",1,674.606935093975
"sub-017",75,"Creativity","Concrete","New",1,291.638985506482
"sub-017",76,"Knowledge","Concrete","Old",1,285.829286693195
"sub-017",77,"Faith","Concrete","New",1,484.604673996827
"sub-017",78,"Window","Concrete","New",0,756.562953711764
"sub-017",79,"Mountain","Concrete","Old",0,483.831711619564
"sub-017",80,"Happiness","Concrete","New",1,629.496531135756
"sub-017",81,"Patience","Concrete","Old",1,678.50298033238
"sub-017",82,"Road","Abstract","New",1,528.961252874786
"sub-017",83,"Camera","Concrete","New",0,340.109427697189
"sub-017",84,"House","Concrete","Old",1,594.67354030652
"sub-017",85,"Chair","Abstract","Old",1,232.040508662731
"sub-017",86,"Window","Abstract","New",0,640.207701069049
"sub-017",87,"Love","Concrete","Old",1,279.926931322629
"sub-017",88,"River","Concrete","Old",1,265.929445917001
"sub-017",89,"Computer","Abstract","Old",1,540.0337212165
"sub-017",90,"River","Abstract","Old",1,819.705855652367
"sub-017",91,"Determination","Concrete","Old",1,740.514571780286
"sub-017",92,"Friendship","Concrete","Old",1,730.103237404035
"sub-017",93,"Ambition","Abstract","New",1,429.825221445254
"sub-017",94,"Hope","Concrete","Old",1,386.300147371086
"sub-017",95,"Apple","Abstract","Old",0,545.546785945614
"sub-017",96,"Park","Concrete","Old",1,672.1783995328
"sub-017",97,"Boat","Abstract","Old",0,986.923704812314
"sub-017",98,"Bridge","Concrete","Old",0,189.019888937548
"sub-017",99,"Courage","Concrete","Old",1,480.315766600227
"sub-017",100,"Humility","Concrete","Old",1,451.541208019596
"sub-018",1,"Book","Concrete","Old",0,322.675105892591
"sub-018",2,"Hope","Concrete","New",1,691.303418409748
"sub-018",3,"Chair","Abstract","Old",1,422.176672790997
"sub-018",4,"Dog","Abstract","Old",1,704.778355348399
"sub-018",5,"Happiness","Concrete","Old",1,727.504346588527
"sub-018",6,"Trust","Concrete","New",1,296.210296445894
"sub-018",7,"Humility","Concrete","New",1,195.771510487498
"sub-018",8,"Tree","Concrete","Old",0,594.865292983576
"sub-018",9,"Success","Abstract","Old",1,354.054226765045
"sub-018",10,"Peace","Concrete","New",1,296.14645212564
"sub-018",11,"Lamp","Concrete","Old",0,577.70296012502
"sub-018",12,"Courage","Concrete","New",1,931.29882263101
"sub-018",13,"Apple","Concrete","New",1,586.713816656963
"sub-018",14,"Integrity","Abstract","Old",1,660.481600877423
"sub-018",15,"Wisdom","Concrete","New",1,920.446044704526
"sub-018",16,"Compassion","Abstract","New",1,1000.22693585761
"sub-018",17,"Justice","Concrete","Old",1,506.550144048255
